%  Data file recorded 2016/7/16  17:25:40
%  Stride Frequency         = [1, 1]
%  Lead In /Lead Out        = 
%  Deltas (Fractional)      = [0.25, 0.25, 0.25],[0.25, 0.25, 0.25]
%  Phase                    = 32768
%  Experiment.py 
%  Motor Gains    = [0, 0, 0, 0, 0, 0, 0, 0, 0, 0]
% Columns: 
% time | Right Leg Pos | Left Leg Pos | Commanded Right Leg Pos | Commanded Left Leg Pos | DCR | DCL | GyroX | GyroY | GyroZ | AX | AY | AZ | RBEMF | LBEMF | VBatt | S1 | S2 | S3 | S4 | S5 | S6 | S7 | S8
124,-45804,-15500,-47040,-14272,0,0,-22,20,-10,-89,81,3954,-6,-6,881,1760,1860,2082,2196,2018,1800,1872,1990
1125,-45804,-15508,-47040,-14272,0,0,-22,23,-11,-88,58,3948,-8,-7,881,1760,1860,2082,2196,2018,1800,1872,1990
2126,-45812,-15508,-47040,-14272,0,0,-24,19,-12,-100,61,3903,-5,5,881,1760,1860,2082,2196,2018,1800,1872,1990
3127,-45808,-15496,-47040,-14272,0,0,-24,18,-16,-115,67,3906,0,5,881,1760,1860,2082,2196,2018,1800,1872,1990
4128,-45796,-15520,-47040,-14272,0,0,-21,20,-14,-102,65,3972,10,7,881,1760,1860,2082,2196,2018,1800,1872,1990
5129,-45812,-15496,-47040,-14272,0,0,-20,19,-11,-96,67,3968,11,8,881,1760,1858,2079,2194,2018,1797,1871,1989
6130,-45800,-15504,-47040,-14272,0,0,-22,20,-12,-92,65,3947,3,4,881,1760,1858,2079,2194,2018,1797,1871,1989
7131,-45800,-15504,-47040,-14272,0,0,-23,23,-11,-80,54,3955,-8,3,881,1760,1858,2079,2194,2018,1797,1871,1989
8132,-45808,-15500,-47040,-14272,0,0,-21,20,-14,-90,53,3946,-7,6,881,1760,1858,2079,2194,2018,1797,1871,1989
9133,-45804,-15512,-47040,-14272,0,0,-21,19,-15,-87,60,3932,-1,4,881,1760,1858,2079,2194,2018,1797,1871,1989
10134,-45808,-15500,-47040,-14272,0,0,-23,20,-16,-95,68,3944,2,6,881,1760,1858,2079,2194,2018,1797,1871,1989
11135,-45800,-15504,-47040,-14272,0,0,-23,19,-16,-102,53,3921,6,8,881,1760,1860,2080,2194,2017,1798,1872,1989
12136,-45804,-15516,-47040,-14272,0,0,-24,19,-17,-112,63,3917,10,7,881,1760,1860,2080,2194,2017,1798,1872,1989
13137,-45808,-15496,-47040,-14272,0,0,-21,19,-17,-125,56,3906,8,8,881,1760,1860,2080,2194,2017,1798,1872,1989
14138,-45816,-15508,-47040,-14272,0,0,-20,17,-17,-104,73,3938,8,7,881,1760,1860,2080,2194,2017,1798,1872,1989
15139,-45804,-15496,-47040,-14272,0,0,-18,17,-17,-105,68,3954,-3,7,881,1760,1860,2080,2194,2017,1798,1872,1989
16140,-45812,-15496,-47040,-14272,0,0,-19,19,-17,-96,83,3952,-8,8,881,1759,1859,2081,2194,2017,1797,1871,1989
17141,-45808,-15512,-47040,-14272,0,0,-21,18,-16,-98,59,3930,-8,6,881,1759,1859,2081,2194,2017,1797,1871,1989
18142,-45804,-15504,-47040,-14272,0,0,-21,14,-18,-96,54,3927,-6,8,881,1759,1859,2081,2194,2017,1797,1871,1989
19143,-45812,-15504,-47040,-14272,0,0,-20,14,-17,-115,62,3967,4,7,880,1759,1859,2081,2194,2017,1797,1871,1989
20144,-45808,-15508,-47040,-14272,0,0,-20,17,-15,-110,45,3942,8,4,881,1759,1859,2081,2194,2017,1797,1871,1989
21145,-45804,-15492,-47040,-14272,0,0,-21,19,-17,-76,41,3952,11,8,881,1759,1859,2081,2194,2017,1797,1871,1989
22146,-45800,-15508,-47040,-14272,0,0,-19,18,-18,-79,33,3933,11,8,882,1760,1860,2081,2195,2017,1797,1871,1989
23147,-45812,-15500,-47040,-14272,0,0,-20,15,-17,-75,68,3972,11,7,881,1760,1860,2081,2195,2017,1797,1871,1989
24148,-45804,-15512,-47040,-14272,0,0,-20,12,-16,-98,65,3962,10,8,881,1760,1860,2081,2195,2017,1797,1871,1989
25149,-45800,-15504,-47040,-14272,0,0,-21,14,-20,-85,76,3945,5,8,881,1760,1860,2081,2195,2017,1797,1871,1989
26150,-45792,-15500,-47040,-14272,0,0,-22,16,-19,-51,62,3974,5,8,881,1760,1860,2081,2195,2017,1797,1871,1989
27151,-45804,-15512,-47040,-14272,0,0,-19,18,-19,-56,70,3967,0,0,881,1759,1860,2081,2195,2017,1798,1871,1990
28152,-45808,-15500,-47040,-14272,0,0,-19,18,-19,-73,60,3957,-7,2,881,1759,1860,2081,2195,2017,1798,1871,1990
29153,-45788,-15520,-47040,-14272,0,0,-19,17,-19,-72,82,3967,-5,6,881,1759,1860,2081,2195,2017,1798,1871,1990
30154,-45800,-15500,-47040,-14272,0,0,-19,17,-20,-75,56,3953,-8,2,881,1759,1860,2081,2195,2017,1798,1871,1990
31155,-45804,-15512,-47040,-14272,0,0,-19,17,-18,-66,21,3950,-8,5,881,1759,1860,2081,2195,2017,1798,1871,1990
32156,-45812,-15500,-47040,-14272,0,0,-19,15,-20,-68,38,3948,-7,7,881,1759,1860,2081,2195,2017,1798,1871,1990
33157,-45808,-15504,-47040,-14272,0,0,-19,17,-21,-90,54,3903,-8,3,881,1760,1860,2081,2195,2017,1798,1871,1990
34158,-45808,-15496,-47040,-14272,0,0,-17,18,-20,-74,56,3925,-7,1,881,1760,1860,2081,2195,2017,1798,1871,1990
35159,-45804,-15512,-47040,-14272,0,0,-18,17,-21,-77,64,3953,-6,-1,881,1760,1860,2081,2195,2017,1798,1871,1990
36160,-45800,-15512,-47040,-14272,0,0,-18,17,-19,-93,67,3943,4,-5,880,1760,1860,2081,2195,2017,1798,1871,1990
37161,-45816,-15508,-47040,-14272,0,0,-19,18,-17,-72,65,3919,11,-1,881,1760,1860,2081,2195,2017,1798,1871,1990
38162,-45820,-15500,-47040,-14272,0,0,-19,21,-19,-63,46,3973,10,6,882,1758,1859,2081,2195,2018,1799,1871,1990
39163,-45816,-15508,-47040,-14272,0,0,-23,21,-20,-78,42,3973,-4,7,881,1758,1859,2081,2195,2018,1799,1871,1990
40164,-45804,-15504,-47040,-14272,0,0,-21,18,-19,-64,61,3973,-8,4,881,1758,1859,2081,2195,2018,1799,1871,1990
41165,-45808,-15496,-47040,-14272,0,0,-20,18,-17,-79,64,3956,-8,4,881,1758,1859,2081,2195,2018,1799,1871,1990
42166,-45808,-15504,-47040,-14272,0,0,-22,18,-15,-90,57,3985,0,1,881,1758,1859,2081,2195,2018,1799,1871,1990
43167,-45824,-15508,-47040,-14272,0,0,-21,20,-15,-77,32,3968,11,2,881,1758,1859,2081,2195,2018,1799,1871,1990
44168,-45804,-15500,-47040,-14272,0,0,-23,21,-14,-64,51,3960,11,4,881,1760,1858,2080,2195,2018,1799,1872,1990
45169,-45800,-15508,-47040,-14272,0,0,-21,20,-15,-71,55,3941,6,-1,881,1760,1858,2080,2195,2018,1799,1872,1990
46170,-45800,-15504,-47040,-14272,0,0,-19,18,-16,-96,47,3949,-6,0,881,1760,1858,2080,2195,2018,1799,1872,1990
47171,-45800,-15508,-47040,-14272,0,0,-19,18,-17,-78,46,3949,-6,-2,881,1760,1858,2080,2195,2018,1799,1872,1990
48172,-45804,-15504,-47040,-14272,0,0,-20,16,-18,-68,67,3974,-7,-6,881,1760,1858,2080,2195,2018,1799,1872,1990
49173,-45796,-15512,-47040,-14272,0,0,-21,17,-17,-92,73,3941,-3,-6,881,1758,1858,2080,2195,2018,1798,1872,1989
50174,-45808,-15512,-47040,-14272,0,0,-24,16,-15,-50,62,3931,-4,-6,881,1758,1858,2080,2195,2018,1798,1872,1989
51175,-45808,-15504,-47040,-14272,0,0,-22,17,-15,-69,85,3954,4,-6,881,1758,1858,2080,2195,2018,1798,1872,1989
52176,-45816,-15500,-47040,-14272,0,0,-20,17,-16,-87,60,3947,10,-5,881,1758,1858,2080,2195,2018,1798,1872,1989
53177,-45804,-15496,-47040,-14272,0,0,-22,17,-18,-88,52,3929,11,-5,880,1758,1858,2080,2195,2018,1798,1872,1989
54178,-45808,-15500,-47040,-14272,0,0,-24,17,-15,-69,54,3963,9,-6,881,1758,1858,2080,2195,2018,1798,1872,1989
55179,-45804,-15508,-47040,-14272,0,0,-23,21,-14,-77,51,3954,6,-4,881,1760,1859,2080,2195,2018,1798,1871,1990
56180,-45800,-15516,-47040,-14272,0,0,-21,21,-13,-74,55,3927,-4,2,881,1760,1859,2080,2195,2018,1798,1871,1990
57181,-45812,-15504,-47040,-14272,0,0,-21,24,-10,-77,53,3932,-8,0,881,1760,1859,2080,2195,2018,1798,1871,1990
58182,-45804,-15504,-47040,-14272,0,0,-25,21,-10,-74,47,3948,-7,4,881,1760,1859,2080,2195,2018,1798,1871,1990
59183,-45804,-15508,-47040,-14272,0,0,-24,18,-12,-67,63,3965,-4,5,881,1760,1859,2080,2195,2018,1798,1871,1990
60184,-45808,-15504,-47040,-14272,0,0,-23,15,-13,-86,73,3956,7,-1,881,1759,1859,2080,2196,2018,1798,1871,1989
61185,-45804,-15508,-47040,-14272,0,0,-22,17,-14,-93,63,3977,6,0,881,1759,1859,2080,2196,2018,1798,1871,1989
62186,-45812,-15504,-47040,-14272,0,0,-24,17,-13,-119,51,3955,-2,5,881,1759,1859,2080,2196,2018,1798,1871,1989
63187,-45808,-15508,-47040,-14272,0,0,-24,20,-13,-107,46,3949,-8,-1,881,1759,1859,2080,2196,2018,1798,1871,1989
64188,-45808,-15512,-47040,-14272,0,0,-24,19,-13,-97,54,3933,-5,-2,881,1759,1859,2080,2196,2018,1798,1871,1989
65189,-45812,-15504,-47040,-14272,0,0,-23,18,-16,-79,49,3948,-7,-1,881,1759,1859,2080,2196,2018,1798,1871,1989
66190,-45804,-15496,-47040,-14272,0,0,-21,16,-14,-99,44,3964,-1,-7,881,1759,1859,2081,2196,2017,1797,1871,1990
67191,-45820,-15504,-47040,-14272,0,0,-20,19,-13,-86,60,3945,10,-6,881,1759,1859,2081,2196,2017,1797,1871,1990
68192,-45800,-15504,-47040,-14272,0,0,-21,19,-15,-116,61,3973,10,-7,881,1759,1859,2081,2196,2017,1797,1871,1990
69193,-45808,-15500,-47040,-14272,0,0,-22,17,-16,-94,46,3964,-7,-6,881,1759,1859,2081,2196,2017,1797,1871,1990
70194,-45808,-15496,-47040,-14272,0,0,-22,19,-11,-95,64,3930,0,-7,880,1759,1859,2081,2196,2017,1797,1871,1990
71195,-45812,-15508,-47040,-14272,0,0,-21,19,-13,-114,64,3912,8,3,881,1759,1859,2080,2197,2017,1795,1867,1987
72196,-45804,-15504,-47040,-14272,0,0,-21,19,-15,-86,66,3927,11,-1,881,1759,1859,2080,2197,2017,1795,1867,1987
73197,-45800,-15504,-47040,-14272,0,0,-22,21,-16,-86,66,3939,1,1,881,1759,1859,2080,2197,2017,1795,1867,1987
74198,-45816,-15508,-47040,-14272,0,0,-21,22,-14,-112,41,3924,-6,0,881,1759,1859,2080,2197,2017,1795,1867,1987
75199,-45804,-15496,-47040,-14272,0,0,-21,20,-12,-84,62,3932,-8,-4,881,1759,1859,2080,2197,2017,1795,1867,1987
76200,-45800,-15508,-47040,-14272,0,0,-21,19,-14,-98,62,3921,-1,-2,881,1759,1859,2080,2197,2017,1795,1867,1987
77201,-45800,-15496,-47040,-14272,0,0,-23,19,-18,-101,59,3903,-2,3,881,1758,1859,2080,2196,2018,1797,1870,1988
78202,-45812,-15500,-47040,-14272,0,0,-24,14,-15,-97,56,3908,6,-5,881,1758,1859,2080,2196,2018,1797,1870,1988
79203,-45808,-15512,-47040,-14272,0,0,-22,16,-15,-65,54,3930,11,-5,881,1758,1859,2080,2196,2018,1797,1870,1988
80204,-45800,-15492,-47040,-14272,0,0,-19,19,-15,-76,60,3965,11,0,881,1758,1859,2080,2196,2018,1797,1870,1988
81205,-45804,-15512,-47040,-14272,0,0,-19,18,-14,-78,68,3958,9,1,881,1758,1859,2080,2196,2018,1797,1870,1988
82206,-45812,-15508,-47040,-14272,0,0,-18,17,-16,-59,52,3940,-1,5,881,1757,1857,2075,2195,2018,1798,1872,1990
83207,-45816,-15508,-47040,-14272,0,0,-17,17,-20,-73,67,3919,-1,8,881,1757,1857,2075,2195,2018,1798,1872,1990
84208,-45800,-15504,-47040,-14272,0,0,-16,18,-17,-82,74,3930,0,4,881,1757,1857,2075,2195,2018,1798,1872,1990
85209,-45800,-15500,-47040,-14272,0,0,-17,20,-16,-80,92,3950,-2,3,881,1757,1857,2075,2195,2018,1798,1872,1990
86210,-45804,-15500,-47040,-14272,0,0,-18,20,-18,-93,65,3970,3,6,881,1757,1857,2075,2195,2018,1798,1872,1990
87211,-45808,-15520,-47040,-14272,0,0,-17,18,-16,-92,81,3958,-3,7,880,1757,1857,2075,2195,2018,1798,1872,1990
88212,-45804,-15496,-47040,-14272,0,0,-17,20,-15,-99,90,3946,-8,3,881,1759,1859,2080,2195,2017,1798,1870,1989
89213,-45804,-15508,-47040,-14272,0,0,-17,18,-17,-99,96,3974,-7,-2,881,1759,1859,2080,2195,2017,1798,1870,1989
90214,-45804,-15512,-47040,-14272,0,0,-18,16,-17,-88,74,3923,-8,-3,881,1759,1859,2080,2195,2017,1798,1870,1989
91215,-45792,-15504,-47040,-14272,0,0,-17,15,-16,-67,72,3962,-5,-6,881,1759,1859,2080,2195,2017,1798,1870,1989
92216,-45812,-15504,-47040,-14272,0,0,-18,14,-16,-79,61,3982,-7,-7,881,1759,1859,2080,2195,2017,1798,1870,1989
93217,-45804,-15500,-47040,-14272,0,0,-19,14,-15,-80,57,3953,3,-6,881,1760,1860,2082,2197,2018,1800,1872,1990
94218,-45804,-15500,-47040,-14272,0,0,-20,16,-15,-72,49,3931,10,-6,881,1760,1860,2082,2197,2018,1800,1872,1990
95219,-45804,-15508,-47040,-14272,0,0,-18,18,-16,-73,56,3929,8,-5,881,1760,1860,2082,2197,2018,1800,1872,1990
96220,-45804,-15520,-47040,-14272,0,0,-18,16,-18,-89,55,3916,5,-7,881,1760,1860,2082,2197,2018,1800,1872,1990
97221,-45816,-15500,-47040,-14272,0,0,-18,16,-18,-75,51,3957,1,-6,881,1760,1860,2082,2197,2018,1800,1872,1990
98222,-45808,-15508,-47040,-14272,0,0,-18,18,-17,-93,61,3952,8,-6,881,1760,1860,2082,2197,2018,1800,1872,1990
99223,-45804,-15504,-47040,-14272,0,0,-19,19,-16,-76,78,3931,3,-6,881,1758,1859,2080,2196,2018,1798,1871,1990
100224,-45804,-15496,-47040,-14272,0,0,-20,17,-17,-83,49,3965,-2,-7,881,1758,1859,2080,2196,2018,1798,1871,1990
101225,-45800,-15512,-47040,-14272,0,0,-19,14,-17,-74,51,3941,-4,-7,881,1758,1859,2080,2196,2018,1798,1871,1990
102226,-45800,-15504,-47040,-14272,0,0,-19,15,-17,-63,59,3922,-7,-4,881,1758,1859,2080,2196,2018,1798,1871,1990
103227,-45812,-15496,-47040,-14272,0,0,-18,14,-19,-82,63,3960,-7,-4,881,1758,1859,2080,2196,2018,1798,1871,1990
104228,-45812,-15512,-47040,-14272,0,0,-19,17,-20,-66,67,3973,-3,-4,880,1760,1860,2081,2196,2018,1800,1872,1989
105229,-45820,-15516,-47040,-14272,0,0,-18,18,-19,-72,49,3960,-4,-6,881,1760,1860,2081,2196,2018,1800,1872,1989
106230,-45800,-15516,-47040,-14272,0,0,-21,18,-16,-66,43,3965,-7,-5,881,1760,1860,2081,2196,2018,1800,1872,1989
107231,-45804,-15496,-47040,-14272,0,0,-23,18,-13,-91,41,3956,-7,-4,881,1760,1860,2081,2196,2018,1800,1872,1989
108232,-45820,-15516,-47040,-14272,0,0,-20,18,-15,-86,73,3902,-8,4,881,1760,1860,2081,2196,2018,1800,1872,1989
109233,-45800,-15508,-47040,-14272,0,0,-21,20,-18,-63,37,3935,-8,5,881,1760,1860,2081,2196,2018,1800,1872,1989
110234,-45804,-15504,-47040,-14272,0,0,-24,21,-18,-57,29,3991,-8,-2,881,1757,1859,2080,2196,2019,1798,1872,1990
111235,-45800,-15496,-47040,-14272,0,0,-26,19,-16,-80,44,3927,-8,7,881,1757,1859,2080,2196,2019,1798,1872,1990
112236,-45804,-15500,-47040,-14272,0,0,-23,18,-18,-77,54,3913,-5,8,881,1757,1859,2080,2196,2019,1798,1872,1990
113237,-45816,-15508,-47040,-14272,0,0,-22,18,-18,-80,72,3954,-7,8,881,1757,1859,2080,2196,2019,1798,1872,1990
114238,-45816,-15504,-47040,-14272,0,0,-23,19,-17,-70,80,3926,-4,6,881,1757,1859,2080,2196,2019,1798,1872,1990
115239,-45820,-15504,-47040,-14272,0,0,-23,20,-15,-89,69,3970,2,7,881,1760,1859,2080,2196,2017,1798,1871,1989
116240,-45812,-15508,-47040,-14272,0,0,-25,20,-18,-97,74,3941,2,8,881,1760,1859,2080,2196,2017,1798,1871,1989
117241,-45804,-15504,-47040,-14272,0,0,-24,19,-19,-82,60,3935,8,5,881,1760,1859,2080,2196,2017,1798,1871,1989
118242,-45800,-15500,-47040,-14272,0,0,-24,16,-20,-81,40,3933,11,7,881,1760,1859,2080,2196,2017,1798,1871,1989
119243,-45804,-15504,-47040,-14272,0,0,-23,18,-17,-67,69,3957,5,8,881,1760,1859,2080,2196,2017,1798,1871,1989
120250,-45820,-15496,-47040,-14272,0,0,-23,22,-19,-93,51,3971,8,8,881,1760,1859,2080,2196,2017,1798,1871,1989
121245,-45796,-15504,-47040,-14272,0,0,-24,22,-18,-83,52,3981,10,8,880,1759,1859,2080,2197,2018,1797,1870,1989
122246,-45812,-15500,-47040,-14272,0,0,-24,22,-18,-80,51,3952,10,1,881,1759,1859,2080,2197,2018,1797,1870,1989
123247,-45804,-15500,-47040,-14272,0,0,-23,20,-18,-68,67,3958,10,2,881,1759,1859,2080,2197,2018,1797,1870,1989
124248,-45796,-15504,-47040,-14272,0,0,-20,18,-18,-84,65,3959,11,-4,881,1759,1859,2080,2197,2018,1797,1870,1989
125249,-45812,-15500,-47040,-14272,0,0,-19,17,-17,-91,57,3974,6,-7,881,1759,1859,2080,2197,2018,1797,1870,1989
126250,-45804,-15512,-47040,-14272,0,0,-22,18,-17,-75,62,3940,11,-6,881,1759,1859,2081,2197,2018,1798,1871,1988
127251,-45812,-15516,-47040,-14272,0,0,-22,22,-16,-73,79,3945,10,-7,881,1759,1859,2081,2197,2018,1798,1871,1988
128252,-45808,-15504,-47040,-14272,0,0,-24,23,-16,-59,78,3918,11,-6,881,1759,1859,2081,2197,2018,1798,1871,1988
129253,-45796,-15504,-47040,-14272,0,0,-24,21,-17,-62,82,3920,10,-7,881,1759,1859,2081,2197,2018,1798,1871,1988
130254,-45812,-15492,-47040,-14272,0,0,-26,16,-17,-73,53,3938,5,-7,881,1759,1859,2081,2197,2018,1798,1871,1988
131255,-45812,-15504,-47040,-14272,0,0,-22,17,-16,-68,60,3947,3,-7,881,1755,1857,2079,2198,2018,1799,1872,1990
132256,-45816,-15504,-47040,-14272,0,0,-19,18,-16,-67,66,3947,-5,-3,881,1755,1857,2079,2198,2018,1799,1872,1990
133257,-45800,-15508,-47040,-14272,0,0,-20,18,-14,-62,41,3924,-8,-6,881,1755,1857,2079,2198,2018,1799,1872,1990
134258,-45800,-15504,-47040,-14272,0,0,-24,18,-14,-94,69,3892,-8,-7,881,1755,1857,2079,2198,2018,1799,1872,1990
135259,-45808,-15504,-47040,-14272,0,0,-24,18,-13,-74,48,3915,-6,-7,881,1755,1857,2079,2198,2018,1799,1872,1990
136260,-45796,-15508,-47040,-14272,0,0,-21,18,-13,-78,56,3931,3,-6,881,1755,1857,2079,2198,2018,1799,1872,1990
137261,-45800,-15516,-47040,-14272,0,0,-18,19,-16,-74,53,3938,4,-6,881,1759,1859,2080,2196,2017,1797,1871,1989
138262,-45796,-15520,-47040,-14272,0,0,-19,21,-16,-76,67,3926,11,-7,880,1759,1859,2080,2196,2017,1797,1871,1989
139263,-45816,-15512,-47040,-14272,0,0,-24,20,-14,-78,65,3950,7,-2,881,1759,1859,2080,2196,2017,1797,1871,1989
140264,-45800,-15516,-47040,-14272,0,0,-23,20,-14,-75,66,3990,7,2,881,1759,1859,2080,2196,2017,1797,1871,1989
141265,-45804,-15512,-47040,-14272,0,0,-21,20,-12,-78,63,3973,-7,-2,881,1759,1859,2080,2196,2017,1797,1871,1989
142266,-45804,-15508,-47040,-14272,0,0,-20,18,-13,-66,69,3972,-8,0,881,1760,1858,2081,2197,2017,1798,1871,1989
143267,-45800,-15500,-47040,-14272,0,0,-19,19,-14,-78,66,3948,-8,-1,881,1760,1858,2081,2197,2017,1798,1871,1989
144268,-45816,-15516,-47040,-14272,0,0,-18,19,-13,-93,66,3942,-7,-6,881,1760,1858,2081,2197,2017,1798,1871,1989
145269,-45808,-15508,-47040,-14272,0,0,-19,21,-12,-82,64,3916,0,-5,881,1760,1858,2081,2197,2017,1798,1871,1989
146270,-45808,-15496,-47040,-14272,0,0,-18,19,-13,-77,50,3975,-3,-2,881,1760,1858,2081,2197,2017,1798,1871,1989
147271,-45804,-15504,-47040,-14272,0,0,-21,18,-16,-101,65,3953,-2,-4,881,1760,1858,2081,2197,2017,1798,1871,1989
148272,-45804,-15508,-47040,-14272,0,0,-25,18,-16,-88,70,3952,8,-1,881,1758,1858,2080,2198,2018,1797,1871,1989
149273,-45808,-15516,-47040,-14272,0,0,-22,20,-14,-78,76,3988,5,2,881,1758,1858,2080,2198,2018,1797,1871,1989
150274,-45804,-15500,-47040,-14272,0,0,-17,19,-13,-94,73,3962,4,-4,881,1758,1858,2080,2198,2018,1797,1871,1989
151275,-45800,-15520,-47040,-14272,0,0,-19,20,-14,-81,47,3961,3,-1,881,1758,1858,2080,2198,2018,1797,1871,1989
152276,-45804,-15500,-47040,-14272,0,0,-21,19,-15,-95,28,3984,-1,-1,881,1758,1858,2080,2198,2018,1797,1871,1989
153277,-45808,-15504,-47040,-14272,0,0,-22,18,-17,-89,56,3955,2,-7,881,1760,1860,2081,2198,2018,1798,1871,1990
154278,-45804,-15492,-47040,-14272,0,0,-22,18,-16,-72,81,3925,9,-6,881,1760,1860,2081,2198,2018,1798,1871,1990
155279,-45800,-15504,-47040,-14272,0,0,-22,18,-14,-78,52,3945,10,-7,880,1760,1860,2081,2198,2018,1798,1871,1990
156280,-45812,-15504,-47040,-14272,0,0,-20,18,-12,-65,65,3965,2,-7,881,1760,1860,2081,2198,2018,1798,1871,1990
157281,-45804,-15508,-47040,-14272,0,0,-20,17,-12,-87,72,3954,2,-6,881,1760,1860,2081,2198,2018,1798,1871,1990
158282,-45808,-15500,-47040,-14272,0,0,-20,17,-17,-88,90,3954,4,-6,881,1760,1860,2081,2198,2018,1798,1871,1990
159283,-45804,-15492,-47040,-14272,0,0,-19,17,-18,-58,90,3963,0,-7,881,1759,1859,2081,2195,2017,1798,1871,1992
160284,-45800,-15512,-47040,-14272,0,0,-19,17,-17,-53,63,3963,-2,-7,881,1759,1859,2081,2195,2017,1798,1871,1992
161285,-45796,-15512,-47040,-14272,0,0,-19,18,-16,-88,49,3964,7,-7,881,1759,1859,2081,2195,2017,1798,1871,1992
162286,-45812,-15508,-47040,-14272,0,0,-18,19,-14,-105,57,3927,8,-5,881,1759,1859,2081,2195,2017,1798,1871,1992
163287,-45808,-15504,-47040,-14272,0,0,-21,15,-15,-98,51,3925,11,-6,881,1759,1859,2081,2195,2017,1798,1871,1992
164288,-45796,-15504,-47040,-14272,0,0,-19,18,-16,-97,44,3921,3,-7,881,1758,1859,2081,2197,2018,1798,1870,1989
165289,-45804,-15496,-47040,-14272,0,0,-18,18,-16,-78,57,3919,-7,-5,881,1758,1859,2081,2197,2018,1798,1870,1989
166290,-45796,-15516,-47040,-14272,0,0,-20,16,-16,-109,68,3933,-6,-5,881,1758,1859,2081,2197,2018,1798,1870,1989
167291,-45812,-15504,-47040,-14272,0,0,-21,17,-18,-89,79,3954,5,-6,881,1758,1859,2081,2197,2018,1798,1870,1989
168294,-45824,-15500,-47040,-14272,0,0,-22,17,-18,-88,74,3953,7,-4,881,1758,1859,2081,2197,2018,1798,1870,1989
169293,-45812,-15512,-47040,-14272,0,0,-22,17,-18,-87,82,3916,10,-6,881,1758,1859,2081,2197,2018,1798,1870,1989
170294,-45808,-15496,-47040,-14272,0,0,-20,17,-17,-74,82,3941,8,-7,881,1759,1862,2084,2200,2020,1800,1872,1990
171295,-45800,-15496,-47040,-14272,0,0,-21,14,-19,-98,71,3956,5,-6,881,1759,1862,2084,2200,2020,1800,1872,1990
172296,-45808,-15512,-47040,-14272,0,0,-23,15,-19,-78,55,3969,3,-6,880,1759,1862,2084,2200,2020,1800,1872,1990
173297,-45812,-15504,-47040,-14272,0,0,-24,16,-16,-63,51,3920,-2,1,881,1759,1862,2084,2200,2020,1800,1872,1990
174298,-45808,-15504,-47040,-14272,0,0,-22,18,-14,-70,36,3924,-4,0,881,1759,1862,2084,2200,2020,1800,1872,1990
175299,-45800,-15504,-47040,-14272,0,0,-20,20,-15,-89,45,3923,-6,6,881,1759,1858,2080,2197,2017,1798,1871,1990
176300,-45808,-15512,-47040,-14272,0,0,-20,19,-14,-113,49,3931,-8,8,881,1759,1858,2080,2197,2017,1798,1871,1990
177301,-45812,-15504,-47040,-14272,0,0,-22,18,-15,-119,56,3928,-8,8,881,1759,1858,2080,2197,2017,1798,1871,1990
178302,-45804,-15496,-47040,-14272,0,0,-22,16,-17,-105,62,3953,-7,8,881,1759,1858,2080,2197,2017,1798,1871,1990
179303,-45812,-15504,-47040,-14272,0,0,-23,16,-18,-100,79,3987,-7,8,881,1759,1858,2080,2197,2017,1798,1871,1990
180304,-45808,-15508,-47040,-14272,0,0,-23,17,-16,-94,95,3972,-2,7,881,1759,1858,2080,2197,2017,1798,1871,1990
181305,-45812,-15504,-47040,-14272,0,0,-23,18,-15,-92,68,3941,4,7,881,1760,1859,2080,2196,2017,1797,1871,1989
182306,-45796,-15500,-47040,-14272,0,0,-25,18,-18,-69,64,3941,1,7,881,1760,1859,2080,2196,2017,1797,1871,1989
183307,-45804,-15504,-47040,-14272,0,0,-23,19,-17,-70,46,3897,6,7,881,1760,1859,2080,2196,2017,1797,1871,1989
184308,-45800,-15500,-47040,-14272,0,0,-21,17,-16,-96,51,3908,7,7,881,1760,1859,2080,2196,2017,1797,1871,1989
185309,-45800,-15516,-47040,-14272,0,0,-18,17,-17,-70,68,3942,2,5,881,1760,1859,2080,2196,2017,1797,1871,1989
186310,-45800,-15512,-47040,-14272,0,0,-19,16,-14,-98,79,3936,5,-1,881,1757,1858,2079,2196,2016,1797,1871,1989
187311,-45812,-15504,-47040,-14272,0,0,-19,18,-14,-83,93,3950,7,3,881,1757,1858,2079,2196,2016,1797,1871,1989
188312,-45816,-15504,-47040,-14272,0,0,-22,18,-15,-94,73,3916,5,7,881,1757,1858,2079,2196,2016,1797,1871,1989
189313,-45808,-15504,-47040,-14272,0,0,-23,19,-14,-95,47,3930,7,7,880,1757,1858,2079,2196,2016,1797,1871,1989
190314,-45804,-15516,-47040,-14272,0,0,-22,18,-14,-100,53,3916,10,1,881,1757,1858,2079,2196,2016,1797,1871,1989
191315,-45796,-15500,-47040,-14272,0,0,-21,16,-14,-89,61,3927,10,-2,881,1757,1858,2079,2196,2016,1797,1871,1989
192316,-45796,-15512,-47040,-14272,0,0,-22,16,-13,-74,42,3928,6,5,881,1758,1859,2080,2197,2016,1797,1871,1989
193317,-45800,-15508,-47040,-14272,0,0,-22,18,-15,-72,53,3922,1,4,881,1758,1859,2080,2197,2016,1797,1871,1989
194318,-45828,-15516,-47040,-14272,0,0,-20,20,-16,-74,62,3957,8,0,881,1758,1859,2080,2197,2016,1797,1871,1989
195319,-45808,-15500,-47040,-14272,0,0,-16,20,-15,-66,61,3937,11,7,881,1758,1859,2080,2197,2016,1797,1871,1989
196320,-45820,-15512,-47040,-14272,0,0,-18,17,-16,-76,79,3932,10,8,881,1758,1859,2080,2197,2016,1797,1871,1989
197321,-45800,-15504,-47040,-14272,0,0,-20,17,-13,-77,57,3942,10,8,881,1759,1859,2080,2198,2017,1798,1870,1989
198322,-45812,-15504,-47040,-14272,0,0,-21,18,-14,-95,57,3934,10,6,881,1759,1859,2080,2198,2017,1798,1870,1989
199323,-45804,-15500,-47040,-14272,0,0,-23,15,-14,-90,73,3891,9,5,881,1759,1859,2080,2198,2017,1798,1870,1989
200324,-45804,-15512,-47040,-14272,0,0,-22,15,-15,-76,65,3907,6,6,881,1759,1859,2080,2198,2017,1798,1870,1989
201325,-45804,-15520,-47040,-14272,0,0,-19,17,-17,-83,64,3940,8,1,881,1759,1859,2080,2198,2017,1798,1870,1989
202326,-45804,-15512,-47040,-14272,0,0,-18,18,-17,-88,51,3939,10,-3,881,1759,1859,2080,2198,2017,1798,1870,1989
203327,-45812,-15516,-47040,-14272,0,0,-18,19,-16,-90,62,3912,7,-1,881,1760,1859,2081,2198,2018,1798,1871,1990
204328,-45804,-15508,-47040,-14272,0,0,-20,19,-17,-98,48,3918,11,-2,881,1760,1859,2081,2198,2018,1798,1871,1990
205329,-45804,-15512,-46975,-14207,0,0,-19,19,-15,-91,65,3952,9,0,881,1760,1859,2081,2198,2018,1798,1871,1990
206330,-45808,-15508,-46910,-14142,0,0,-21,18,-16,-82,71,3958,11,0,881,1760,1859,2081,2198,2018,1798,1871,1990
207331,-45804,-15508,-46845,-14077,0,0,-20,18,-14,-55,81,3970,10,3,881,1760,1859,2081,2198,2018,1798,1871,1990
208332,-45812,-15520,-46780,-14012,0,0,-20,21,-16,-73,78,3954,11,7,881,1758,1859,2080,2198,2018,1798,1872,1990
209333,-45816,-15504,-46715,-13947,0,0,-20,19,-18,-72,72,3955,6,7,881,1758,1859,2080,2198,2018,1798,1872,1990
210334,-45816,-15512,-46650,-13882,0,0,-19,19,-18,-76,61,3968,1,8,881,1758,1859,2080,2198,2018,1798,1872,1990
211335,-45816,-15500,-46585,-13817,0,0,-18,19,-18,-75,41,3946,-3,7,881,1758,1859,2080,2198,2018,1798,1872,1990
212336,-45804,-15520,-46520,-13752,0,0,-19,19,-18,-92,41,3936,-9,6,881,1758,1859,2080,2198,2018,1798,1872,1990
213337,-45804,-15500,-46455,-13687,0,0,-22,20,-16,-88,45,3947,-8,6,881,1758,1859,2080,2198,2018,1798,1872,1990
214338,-45816,-15500,-46390,-13622,0,0,-22,21,-16,-69,54,3927,-8,3,881,1760,1859,2080,2198,2018,1798,1871,1990
215339,-45804,-15512,-46325,-13557,0,0,-23,22,-17,-92,66,3928,1,-3,881,1760,1859,2080,2198,2018,1798,1871,1990
216340,-45804,-15504,-46260,-13492,0,0,-25,18,-17,-96,61,3904,1,-1,881,1760,1859,2080,2198,2018,1798,1871,1990
217341,-45812,-15504,-46195,-13427,0,0,-22,17,-18,-88,54,3922,2,-4,881,1760,1859,2080,2198,2018,1798,1871,1990
218342,-45808,-15496,-46130,-13362,0,0,-21,18,-19,-98,51,3943,7,-6,881,1760,1859,2080,2198,2018,1798,1871,1990
219343,-45808,-15508,-46065,-13297,0,0,-20,17,-19,-68,48,3928,8,-6,881,1758,1858,2080,2198,2018,1798,1872,1989
220344,-45812,-15508,-46000,-13232,0,0,-20,16,-17,-92,50,3947,2,-6,881,1758,1858,2080,2198,2018,1798,1872,1989
221345,-45800,-15492,-45935,-13167,0,0,-22,16,-15,-94,42,3939,10,-3,881,1758,1858,2080,2198,2018,1798,1872,1989
222346,-45808,-15508,-45870,-13102,0,0,-23,17,-15,-77,54,3929,8,-4,881,1758,1858,2080,2198,2018,1798,1872,1989
223347,-45804,-15508,-45805,-13037,0,0,-25,20,-18,-61,70,3947,5,4,880,1758,1858,2080,2198,2018,1798,1872,1989
224348,-45816,-15508,-45740,-12972,0,0,-24,20,-19,-83,75,3921,7,6,881,1758,1858,2080,2198,2018,1798,1872,1989
225349,-45816,-15512,-45675,-12907,0,0,-24,17,-17,-96,40,3959,-1,4,881,1757,1858,2080,2198,2018,1797,1871,1990
226350,-45800,-15508,-45610,-12842,0,0,-23,15,-17,-92,37,3954,-4,1,881,1757,1858,2080,2198,2018,1797,1871,1990
227351,-45824,-15524,-45545,-12777,0,0,-25,17,-17,-92,59,3963,-4,-4,881,1757,1858,2080,2198,2018,1797,1871,1990
228352,-45800,-15508,-45480,-12712,0,0,-24,19,-16,-81,62,3959,-4,-1,881,1757,1858,2080,2198,2018,1797,1871,1990
229353,-45800,-15508,-45415,-12647,0,0,-22,20,-16,-88,47,3924,-5,-4,881,1757,1858,2080,2198,2018,1797,1871,1990
230354,-45804,-15496,-45350,-12582,0,0,-21,20,-15,-103,45,3910,-2,-2,881,1758,1859,2081,2198,2017,1797,1869,1987
231355,-45800,-15500,-45285,-12517,0,0,-22,17,-16,-106,67,3906,-7,0,881,1758,1859,2081,2198,2017,1797,1869,1987
232356,-45800,-15504,-45220,-12452,0,0,-23,18,-15,-52,62,3912,-8,-5,881,1758,1859,2081,2198,2017,1797,1869,1987
233357,-45808,-15508,-45155,-12387,0,0,-21,18,-17,-70,64,3920,-8,-6,881,1758,1859,2081,2198,2017,1797,1869,1987
234358,-45812,-15504,-45090,-12322,0,0,-21,19,-15,-73,51,3935,-6,-1,881,1758,1859,2081,2198,2017,1797,1869,1987
235359,-45800,-15508,-45025,-12257,0,0,-20,19,-16,-73,61,3925,0,0,881,1758,1859,2081,2198,2017,1797,1869,1987
236360,-45800,-15500,-44960,-12192,0,0,-21,17,-18,-77,73,3946,5,-2,881,1759,1860,2081,2199,2017,1798,1871,1989
237361,-45808,-15500,-44895,-12127,0,0,-20,15,-14,-80,71,3950,11,1,881,1759,1860,2081,2199,2017,1798,1871,1989
238362,-45800,-15508,-44830,-12062,0,0,-20,15,-14,-72,47,3922,1,1,881,1759,1860,2081,2199,2017,1798,1871,1989
239363,-45812,-15504,-44765,-11997,0,0,-21,17,-12,-85,60,3905,-4,-4,881,1759,1860,2081,2199,2017,1798,1871,1989
240364,-45812,-15508,-44700,-11932,0,0,-22,19,-14,-111,62,3941,-8,-4,880,1759,1860,2081,2199,2017,1798,1871,1989
241365,-45804,-15504,-44635,-11867,0,0,-24,16,-12,-86,59,3966,-1,-5,881,1759,1859,2080,2199,2017,1797,1871,1989
242366,-45804,-15508,-44570,-11802,0,0,-22,16,-13,-71,69,3941,-3,-2,881,1759,1859,2080,2199,2017,1797,1871,1989
243367,-45796,-15516,-44505,-11737,0,0,-20,19,-15,-77,53,3925,-1,-4,881,1759,1859,2080,2199,2017,1797,1871,1989
244368,-45808,-15508,-44440,-11672,0,0,-19,19,-15,-67,65,3915,6,-1,881,1759,1859,2080,2199,2017,1797,1871,1989
245369,-45808,-15496,-44375,-11607,0,0,-19,19,-13,-66,82,3942,1,1,881,1759,1859,2080,2199,2017,1797,1871,1989
246370,-45816,-15504,-44310,-11542,0,0,-15,20,-13,-72,65,3942,4,-2,881,1759,1859,2080,2199,2017,1797,1871,1989
247371,-45804,-15508,-44245,-11477,0,0,-16,21,-15,-87,83,3955,10,1,881,1759,1859,2080,2198,2017,1797,1871,1989
248372,-45816,-15508,-44180,-11412,0,0,-17,20,-15,-106,83,3974,10,7,881,1759,1859,2080,2198,2017,1797,1871,1989
249373,-45812,-15500,-44115,-11347,0,0,-15,19,-15,-107,63,3962,11,7,881,1759,1859,2080,2198,2017,1797,1871,1989
250374,-45808,-15512,-44050,-11282,0,0,-16,17,-13,-80,48,3951,9,8,881,1759,1859,2080,2198,2017,1797,1871,1989
251375,-45812,-15504,-43985,-11217,0,0,-16,17,-14,-52,37,3925,9,7,881,1759,1859,2080,2198,2017,1797,1871,1989
252376,-45812,-15508,-43920,-11152,0,0,-17,19,-15,-77,36,3933,1,7,881,1758,1859,2080,2198,2017,1799,1871,1989
253377,-45812,-15508,-43855,-11087,0,0,-19,18,-15,-53,59,3911,-8,4,881,1758,1859,2080,2198,2017,1799,1871,1989
254378,-45804,-15512,-43790,-11022,0,0,-18,17,-15,-85,62,3915,-7,-4,881,1758,1859,2080,2198,2017,1799,1871,1989
255379,-45816,-15508,-43725,-10957,0,0,-16,16,-16,-92,42,3892,-6,-4,881,1758,1859,2080,2198,2017,1799,1871,1989
256380,-45804,-15516,-43660,-10892,0,0,-18,18,-16,-91,63,3909,6,-7,881,1758,1859,2080,2198,2017,1799,1871,1989
257381,-45812,-15516,-43595,-10827,0,0,-20,17,-17,-98,85,3950,9,-3,881,1758,1859,2080,2198,2017,1799,1871,1989
258382,-45812,-15500,-43530,-10762,0,0,-19,18,-17,-83,71,3925,2,6,881,1757,1858,2081,2198,2018,1798,1871,1989
259383,-45808,-15512,-43465,-10697,0,0,-18,17,-18,-71,67,3930,-2,8,881,1757,1858,2081,2198,2018,1798,1871,1989
260384,-45796,-15504,-43400,-10632,0,0,-20,14,-20,-90,67,3938,-5,2,881,1757,1858,2081,2198,2018,1798,1871,1989
261385,-45800,-15512,-43335,-10567,0,0,-21,15,-20,-87,49,3943,-8,4,881,1757,1858,2081,2198,2018,1798,1871,1989
262386,-45808,-15504,-43270,-10502,0,0,-21,18,-17,-67,62,3938,-6,3,881,1757,1858,2081,2198,2018,1798,1871,1989
263387,-45812,-15516,-43205,-10437,0,0,-20,18,-15,-74,68,3963,-4,2,881,1757,1858,2081,2195,2015,1797,1871,1990
264388,-45804,-15500,-43140,-10372,0,0,-22,18,-19,-61,70,3966,8,7,881,1757,1858,2081,2195,2015,1797,1871,1990
265389,-45816,-15508,-43075,-10307,0,0,-22,17,-18,-76,62,3942,11,2,881,1757,1858,2081,2195,2015,1797,1871,1990
266390,-45808,-15512,-43010,-10242,0,0,-22,18,-19,-85,52,3944,10,-3,881,1757,1858,2081,2195,2015,1797,1871,1990
267391,-45804,-15508,-42945,-10177,0,0,-19,21,-18,-81,62,3981,4,0,881,1757,1858,2081,2195,2015,1797,1871,1990
268392,-45804,-15504,-42880,-10112,0,0,-19,19,-17,-73,56,3921,-5,-4,881,1757,1858,2081,2195,2015,1797,1871,1990
269393,-45808,-15512,-42815,-10047,0,0,-22,16,-17,-74,63,3951,-1,-6,881,1758,1859,2080,2198,2018,1798,1870,1989
270394,-45792,-15512,-42750,-9982,0,0,-21,17,-19,-71,70,3982,-5,-4,881,1758,1859,2080,2198,2018,1798,1870,1989
271395,-45800,-15508,-42685,-9917,0,0,-21,16,-19,-57,67,3922,-6,-4,881,1758,1859,2080,2198,2018,1798,1870,1989
272396,-45800,-15496,-42620,-9852,0,0,-22,17,-17,-70,61,3914,-8,-5,881,1758,1859,2080,2198,2018,1798,1870,1989
273397,-45804,-15516,-42555,-9787,0,0,-23,16,-16,-82,54,3930,-6,-2,881,1758,1859,2080,2198,2018,1798,1870,1989
274398,-45808,-15508,-42490,-9722,0,0,-20,16,-18,-99,42,3946,-3,-1,880,1757,1857,2079,2199,2018,1799,1874,1992
275399,-45816,-15512,-42425,-9657,0,0,-21,17,-19,-79,59,3927,8,-7,881,1757,1857,2079,2199,2018,1799,1874,1992
276400,-45804,-15504,-42360,-9592,0,0,-19,18,-18,-77,63,3928,11,-6,881,1757,1857,2079,2199,2018,1799,1874,1992
277401,-45820,-15500,-42295,-9527,0,0,-21,18,-19,-76,66,3928,0,-6,881,1757,1857,2079,2199,2018,1799,1874,1992
278402,-45804,-15508,-42230,-9462,0,0,-23,18,-20,-58,60,3939,-5,2,881,1757,1857,2079,2199,2018,1799,1874,1992
279403,-45800,-15512,-42165,-9397,0,0,-24,19,-17,-91,51,3937,-7,3,881,1757,1857,2079,2199,2018,1799,1874,1992
280404,-45804,-15520,-42100,-9332,0,0,-22,17,-17,-95,55,3941,2,8,881,1759,1860,2081,2199,2017,1797,1871,1989
281405,-45800,-15508,-42035,-9267,0,0,-21,16,-15,-68,23,3937,4,6,881,1759,1860,2081,2199,2017,1797,1871,1989
282406,-45800,-15500,-41970,-9202,0,0,-20,15,-16,-55,58,3873,11,7,881,1759,1860,2081,2199,2017,1797,1871,1989
283407,-45816,-15516,-41905,-9137,0,0,-21,15,-17,-83,55,3924,7,3,881,1759,1860,2081,2199,2017,1797,1871,1989
284408,-45804,-15516,-41840,-9072,0,0,-22,14,-14,-58,64,3941,8,1,881,1759,1860,2081,2199,2017,1797,1871,1989
285409,-45796,-15504,-41775,-9007,0,0,-21,19,-13,-87,56,3951,-3,6,881,1755,1857,2082,2199,2020,1799,1873,1990
286410,-45804,-15504,-41710,-8942,0,0,-21,19,-13,-87,56,3951,-8,7,881,1755,1857,2082,2199,2020,1799,1873,1990
287411,-45800,-15516,-41645,-8877,0,0,-21,18,-15,-73,86,3977,-8,8,881,1755,1857,2082,2199,2020,1799,1873,1990
288412,-45808,-15516,-41580,-8812,0,0,-23,20,-16,-102,48,3923,-7,4,881,1755,1857,2082,2199,2020,1799,1873,1990
289413,-45808,-15504,-41515,-8747,0,0,-24,20,-14,-94,83,3937,-2,3,881,1755,1857,2082,2199,2020,1799,1873,1990
290414,-45812,-15500,-41450,-8682,0,0,-23,18,-14,-91,70,3942,-3,4,881,1755,1857,2082,2199,2020,1799,1873,1990
291415,-45800,-15508,-41385,-8617,0,0,-21,17,-15,-81,57,3916,5,3,880,1758,1859,2080,2200,2017,1797,1871,1989
292416,-45796,-15520,-41320,-8552,0,0,-20,17,-13,-87,70,3932,8,8,881,1758,1859,2080,2200,2017,1797,1871,1989
293417,-45812,-15504,-41255,-8487,0,0,-19,19,-14,-83,67,3930,-4,5,881,1758,1859,2080,2200,2017,1797,1871,1989
294418,-45812,-15508,-41190,-8422,0,0,-19,22,-17,-77,53,3921,-2,7,881,1758,1859,2080,2200,2017,1797,1871,1989
295419,-45820,-15500,-41125,-8357,0,0,-19,18,-16,-83,35,3971,1,4,881,1758,1859,2080,2200,2017,1797,1871,1989
296420,-45820,-15508,-41060,-8292,0,0,-20,19,-14,-89,40,3957,-5,1,881,1755,1855,2079,2198,2015,1799,1873,1992
297421,-45808,-15500,-40995,-8227,0,0,-24,20,-14,-81,51,3935,-7,3,881,1755,1855,2079,2198,2015,1799,1873,1992
298422,-45812,-15516,-40930,-8162,0,0,-22,21,-15,-89,53,3933,-8,-1,881,1755,1855,2079,2198,2015,1799,1873,1992
299423,-45820,-15504,-40865,-8097,0,0,-23,20,-15,-77,54,3925,1,-3,881,1755,1855,2079,2198,2015,1799,1873,1992
300424,-45804,-15508,-40800,-8032,0,0,-23,20,-14,-103,53,3923,7,-2,881,1755,1855,2079,2198,2015,1799,1873,1992
301425,-45800,-15508,-40735,-7967,0,0,-22,19,-16,-97,48,3960,10,-6,881,1755,1855,2079,2198,2015,1799,1873,1992
302426,-45800,-15512,-40670,-7902,0,0,-21,17,-14,-67,46,3937,11,-6,881,1758,1859,2080,2199,2018,1797,1870,1988
303427,-45796,-15504,-40605,-7837,0,0,-21,20,-13,-74,59,3915,9,-4,881,1758,1859,2080,2199,2018,1797,1870,1988
304428,-45804,-15500,-40540,-7772,0,0,-21,20,-11,-66,59,3925,7,-6,881,1758,1859,2080,2199,2018,1797,1870,1988
305429,-45796,-15508,-40475,-7707,0,0,-20,19,-16,-107,36,3952,9,-7,881,1758,1859,2080,2199,2018,1797,1870,1988
306430,-45816,-15508,-40410,-7642,0,0,-19,20,-17,-82,65,3920,-4,-6,881,1758,1859,2080,2199,2018,1797,1870,1988
307431,-45800,-15508,-40345,-7577,0,0,-20,21,-16,-85,62,3919,-8,-6,881,1755,1857,2079,2202,2020,1800,1872,1992
308432,-45804,-15512,-40280,-7512,0,0,-25,20,-15,-88,68,3952,-8,-5,880,1755,1857,2079,2202,2020,1800,1872,1992
309433,-45816,-15504,-40215,-7447,0,0,-22,18,-16,-76,72,3962,9,-2,881,1755,1857,2079,2202,2020,1800,1872,1992
310434,-45808,-15508,-40150,-7382,0,0,-18,16,-17,-77,57,3927,11,6,881,1755,1857,2079,2202,2020,1800,1872,1992
311435,-45796,-15508,-40085,-7317,0,0,-19,17,-16,-97,46,3934,10,7,881,1755,1857,2079,2202,2020,1800,1872,1992
312436,-45796,-15512,-40020,-7252,0,0,-20,18,-17,-87,52,3968,2,1,881,1755,1857,2079,2202,2020,1800,1872,1992
313437,-45808,-15504,-39955,-7187,0,0,-20,16,-18,-94,60,3939,-4,-6,881,1758,1859,2080,2198,2017,1797,1871,1989
314438,-45808,-15516,-39890,-7122,0,0,-20,17,-17,-88,79,3942,-1,-7,881,1758,1859,2080,2198,2017,1797,1871,1989
315439,-45800,-15512,-39825,-7057,0,0,-20,17,-16,-103,53,3947,-7,-3,881,1758,1859,2080,2198,2017,1797,1871,1989
316440,-45804,-15500,-39760,-6992,0,0,-23,17,-20,-91,53,3947,-8,-5,881,1758,1859,2080,2198,2017,1797,1871,1989
317441,-45816,-15512,-39695,-6927,0,0,-22,18,-18,-91,83,3952,-8,-5,881,1758,1859,2080,2198,2017,1797,1871,1989
318442,-45804,-15500,-39630,-6862,0,0,-23,18,-16,-77,59,3932,-6,-1,881,1759,1860,2084,2202,2020,1800,1872,1992
319443,-45812,-15508,-39565,-6797,0,0,-23,15,-19,-78,45,3924,1,-4,881,1759,1860,2084,2202,2020,1800,1872,1992
320444,-45800,-15508,-39500,-6732,0,0,-18,15,-20,-66,61,3918,1,-4,881,1759,1860,2084,2202,2020,1800,1872,1992
321445,-45796,-15512,-39435,-6667,0,0,-18,17,-17,-90,78,3922,9,2,881,1759,1860,2084,2202,2020,1800,1872,1992
322446,-45808,-15508,-39370,-6602,0,0,-20,17,-16,-89,70,3924,11,-3,881,1759,1860,2084,2202,2020,1800,1872,1992
323447,-45816,-15516,-39305,-6537,0,0,-21,16,-16,-91,73,3943,11,-5,881,1759,1860,2084,2202,2020,1800,1872,1992
324448,-45816,-15496,-39240,-6472,0,0,-19,18,-17,-71,81,3929,5,-2,881,1757,1859,2080,2199,2018,1797,1871,1989
325449,-45816,-15496,-39175,-6407,0,0,-22,15,-19,-66,66,3932,-4,-2,880,1757,1859,2080,2199,2018,1797,1871,1989
326450,-45808,-15504,-39110,-6342,0,0,-22,15,-17,-89,32,3971,-8,-7,881,1757,1859,2080,2199,2018,1797,1871,1989
327451,-45804,-15500,-39045,-6277,0,0,-21,15,-17,-94,59,3932,-3,-6,881,1757,1859,2080,2199,2018,1797,1871,1989
328452,-45812,-15500,-38980,-6212,0,0,-19,16,-18,-92,78,3944,7,-7,881,1757,1859,2080,2199,2018,1797,1871,1989
329453,-45800,-15504,-38915,-6147,0,0,-19,15,-18,-95,72,3957,2,-7,881,1755,1858,2082,2202,2020,1800,1872,1992
330454,-45812,-15504,-38850,-6082,0,0,-22,14,-17,-68,65,3930,9,-2,881,1755,1858,2082,2202,2020,1800,1872,1992
331455,-45804,-15508,-38785,-6017,0,0,-21,18,-17,-75,78,3958,11,-3,881,1755,1858,2082,2202,2020,1800,1872,1992
332456,-45804,-15524,-38720,-5952,0,0,-18,19,-17,-86,70,3965,11,-4,881,1755,1858,2082,2202,2020,1800,1872,1992
333457,-45812,-15500,-38655,-5887,0,0,-17,19,-16,-87,53,3943,11,3,881,1755,1858,2082,2202,2020,1800,1872,1992
334458,-45812,-15508,-38590,-5822,0,0,-19,19,-16,-72,61,3940,4,7,881,1755,1858,2082,2202,2020,1800,1872,1992
335459,-45808,-15504,-38525,-5757,0,0,-24,20,-16,-87,62,3963,1,6,881,1757,1859,2080,2199,2017,1797,1871,1989
336460,-45812,-15508,-38460,-5692,0,0,-23,20,-17,-84,59,3933,-3,8,881,1757,1859,2080,2199,2017,1797,1871,1989
337461,-45804,-15512,-38395,-5627,0,0,-20,18,-16,-64,74,3913,-7,8,881,1757,1859,2080,2199,2017,1797,1871,1989
338462,-45812,-15508,-38330,-5562,0,0,-19,19,-17,-58,63,3943,-4,8,881,1757,1859,2080,2199,2017,1797,1871,1989
339463,-45804,-15492,-38265,-5497,0,0,-20,18,-18,-80,44,3988,-7,5,881,1757,1859,2080,2199,2017,1797,1871,1989
340464,-45804,-15512,-38200,-5432,0,0,-22,17,-17,-63,54,3982,-8,7,881,1758,1860,2081,2200,2018,1797,1872,1989
341465,-45808,-15516,-38135,-5367,0,0,-22,18,-16,-73,64,3952,-8,8,881,1758,1860,2081,2200,2018,1797,1872,1989
342466,-45808,-15516,-38070,-5302,0,0,-21,20,-14,-72,49,3948,-4,7,880,1758,1860,2081,2200,2018,1797,1872,1989
343467,-45808,-15500,-38005,-5237,0,0,-21,20,-13,-71,54,3950,9,5,881,1758,1860,2081,2200,2018,1797,1872,1989
344468,-45808,-15508,-37940,-5172,0,0,-19,19,-17,-91,85,3921,10,4,881,1758,1860,2081,2200,2018,1797,1872,1989
345475,-45804,-15496,-37875,-5107,0,0,-18,18,-17,-78,63,3951,11,7,881,1758,1860,2081,2200,2018,1797,1872,1989
346470,-45816,-15508,-37810,-5042,0,0,-21,19,-18,-77,37,3950,11,4,881,1757,1859,2081,2199,2018,1798,1871,1990
347471,-45812,-15504,-37745,-4977,0,0,-20,19,-17,-75,31,3960,11,1,881,1757,1859,2081,2199,2018,1798,1871,1990
348472,-45812,-15508,-37680,-4912,0,0,-20,19,-16,-71,72,3945,11,-5,881,1757,1859,2081,2199,2018,1798,1871,1990
349473,-45816,-15496,-37615,-4847,0,0,-20,18,-15,-73,61,3949,4,-5,881,1757,1859,2081,2199,2018,1798,1871,1990
350474,-45812,-15504,-37550,-4782,0,0,-20,17,-16,-95,43,3960,7,-5,881,1757,1859,2081,2199,2018,1798,1871,1990
351475,-45796,-15504,-37485,-4717,0,0,-18,18,-18,-78,38,3947,-4,-7,881,1757,1859,2081,2200,2018,1798,1871,1990
352476,-45800,-15520,-37420,-4652,0,0,-21,18,-20,-71,58,3943,-7,-4,881,1757,1859,2081,2200,2018,1798,1871,1990
353477,-45800,-15504,-37355,-4587,0,0,-24,19,-17,-84,93,3951,-7,-4,881,1757,1859,2081,2200,2018,1798,1871,1990
354478,-45800,-15504,-37290,-4522,0,0,-22,19,-15,-94,63,3982,-6,3,881,1757,1859,2081,2200,2018,1798,1871,1990
355479,-45808,-15500,-37225,-4457,0,0,-21,19,-16,-67,77,3934,3,3,881,1757,1859,2081,2200,2018,1798,1871,1990
356480,-45804,-15508,-37160,-4392,0,0,-20,18,-18,-87,78,3918,4,5,881,1757,1859,2081,2200,2018,1798,1871,1990
357481,-45800,-15512,-37095,-4327,0,0,-19,19,-17,-113,76,3918,11,8,881,1757,1858,2080,2200,2018,1797,1871,1989
358482,-45808,-15512,-37030,-4262,0,0,-19,18,-16,-110,78,3945,10,8,881,1757,1858,2080,2200,2018,1797,1871,1989
359483,-45808,-15512,-36965,-4197,0,0,-19,16,-15,-107,66,3956,6,6,880,1757,1858,2080,2200,2018,1797,1871,1989
360484,-45796,-15508,-36900,-4132,0,0,-19,14,-15,-90,56,3992,-7,5,881,1757,1858,2080,2200,2018,1797,1871,1989
361485,-45800,-15512,-36835,-4067,0,0,-21,16,-16,-112,39,3942,-8,1,881,1757,1858,2080,2200,2018,1797,1871,1989
362486,-45800,-15504,-36770,-4002,0,0,-23,19,-18,-103,60,3932,-7,0,881,1758,1859,2080,2200,2018,1798,1871,1990
363487,-45800,-15512,-36705,-3937,0,0,-22,20,-17,-85,41,3949,-1,5,881,1758,1859,2080,2200,2018,1798,1871,1990
364488,-45808,-15504,-36640,-3872,0,0,-21,19,-17,-97,71,3921,7,5,881,1758,1859,2080,2200,2018,1798,1871,1990
365489,-45812,-15508,-36575,-3807,0,0,-19,20,-14,-103,80,3941,0,5,881,1758,1859,2080,2200,2018,1798,1871,1990
366490,-45800,-15504,-36510,-3742,0,0,-20,20,-15,-76,74,3956,2,8,881,1758,1859,2080,2200,2018,1798,1871,1990
367491,-45804,-15504,-36445,-3677,0,0,-21,21,-16,-74,73,3957,6,7,881,1757,1858,2081,2200,2019,1799,1871,1989
368492,-45804,-15500,-36380,-3612,0,0,-20,21,-17,-90,48,3942,3,7,881,1757,1858,2081,2200,2019,1799,1871,1989
369493,-45800,-15512,-36315,-3547,0,0,-21,20,-18,-75,57,3941,8,-1,881,1757,1858,2081,2200,2019,1799,1871,1989
370494,-45804,-15504,-36250,-3482,0,0,-22,17,-18,-100,97,3920,10,0,881,1757,1858,2081,2200,2019,1799,1871,1989
371495,-45816,-15504,-36185,-3417,0,0,-20,17,-15,-88,75,3956,7,1,881,1757,1858,2081,2200,2019,1799,1871,1989
372496,-45804,-15504,-36120,-3352,0,0,-20,18,-15,-100,78,3964,-2,-4,881,1757,1858,2081,2200,2019,1799,1871,1989
373497,-45804,-15504,-36055,-3287,0,0,-20,20,-17,-83,66,3932,-8,-2,881,1758,1858,2081,2201,2019,1798,1871,1989
374498,-45812,-15504,-35990,-3222,0,0,-21,20,-17,-92,61,3909,-6,-2,881,1758,1858,2081,2201,2019,1798,1871,1989
375499,-45808,-15516,-35925,-3157,0,0,-23,20,-17,-99,71,3938,6,-6,881,1758,1858,2081,2201,2019,1798,1871,1989
376500,-45816,-15512,-35860,-3092,0,0,-23,18,-17,-84,55,3935,11,-6,880,1758,1858,2081,2201,2019,1798,1871,1989
377501,-45792,-15508,-35795,-3027,0,0,-22,16,-17,-94,33,3930,7,-1,881,1758,1858,2081,2201,2019,1798,1871,1989
378502,-45804,-15508,-35730,-2962,0,0,-20,14,-16,-95,56,3929,0,-4,881,1757,1858,2080,2200,2018,1798,1871,1989
379503,-45808,-15508,-35665,-2897,0,0,-20,11,-13,-84,52,3968,-7,-2,881,1757,1858,2080,2200,2018,1798,1871,1989
380504,-45804,-15512,-35600,-2832,0,0,-21,13,-15,-100,57,3994,-8,-1,881,1757,1858,2080,2200,2018,1798,1871,1989
381505,-45800,-15512,-35535,-2767,0,0,-20,18,-18,-105,48,3953,-8,-4,881,1757,1858,2080,2200,2018,1798,1871,1989
382506,-45808,-15500,-35470,-2702,0,0,-21,20,-16,-106,49,3942,0,-4,881,1757,1858,2080,2200,2018,1798,1871,1989
383507,-45808,-15500,-35405,-2637,0,0,-23,20,-14,-89,43,3945,7,-4,881,1757,1858,2080,2200,2018,1798,1871,1989
384508,-45812,-15512,-35340,-2572,0,0,-24,21,-16,-84,57,3959,8,-7,881,1757,1859,2080,2200,2017,1798,1871,1990
385509,-45808,-15512,-35275,-2507,0,0,-25,21,-14,-91,64,3955,-7,-7,881,1757,1859,2080,2200,2017,1798,1871,1990
386510,-45804,-15500,-35210,-2442,0,0,-22,20,-13,-84,54,3954,-8,-7,881,1757,1859,2080,2200,2017,1798,1871,1990
387511,-45800,-15504,-35145,-2377,0,0,-21,20,-15,-100,58,3927,-6,-5,881,1757,1859,2080,2200,2017,1798,1871,1990
388512,-45816,-15504,-35080,-2312,0,0,-22,19,-16,-103,65,3921,2,-2,881,1757,1859,2080,2200,2017,1798,1871,1990
389513,-45800,-15504,-35015,-2247,0,0,-22,17,-14,-79,75,3950,7,-1,881,1757,1859,2081,2201,2018,1797,1871,1989
390514,-45804,-15492,-34950,-2182,0,0,-24,16,-15,-77,56,3924,8,3,881,1757,1859,2081,2201,2018,1797,1871,1989
391515,-45800,-15492,-34885,-2117,0,0,-22,15,-16,-84,62,3904,-5,2,881,1757,1859,2081,2201,2018,1797,1871,1989
392516,-45808,-15508,-34820,-2052,0,0,-21,16,-15,-90,52,3928,-6,2,881,1757,1859,2081,2201,2018,1797,1871,1989
393519,-45804,-15508,-34755,-1987,0,0,-22,18,-14,-67,71,3959,-7,6,880,1757,1859,2081,2201,2018,1797,1871,1989
394518,-45816,-15508,-34690,-1922,0,0,-20,20,-15,-83,57,3961,8,-6,881,1757,1859,2081,2201,2018,1797,1871,1989
395519,-45804,-15508,-34625,-1857,0,0,-18,20,-15,-100,57,3967,5,-7,881,1758,1859,2081,2200,2017,1798,1870,1989
396520,-45804,-15496,-34560,-1792,0,0,-20,17,-17,-94,50,3911,9,-2,881,1758,1859,2081,2200,2017,1798,1870,1989
397521,-45808,-15512,-34495,-1727,0,0,-21,18,-17,-96,42,3908,10,-4,881,1758,1859,2081,2200,2017,1798,1870,1989
398522,-45816,-15504,-34430,-1662,0,0,-20,16,-16,-82,39,3918,5,-6,881,1758,1859,2081,2200,2017,1798,1870,1989
399523,-45812,-15516,-34365,-1597,0,0,-19,18,-13,-92,56,3926,-8,0,881,1758,1859,2081,2200,2017,1798,1870,1989
400524,-45800,-15504,-34300,-1532,0,0,-17,17,-15,-99,62,3928,4,-3,881,1757,1858,2080,2200,2018,1797,1871,1989
401525,-45808,-15504,-34235,-1467,0,0,-19,17,-16,-82,70,3949,11,-4,881,1757,1858,2080,2200,2018,1797,1871,1989
402526,-45816,-15504,-34170,-1402,0,0,-21,18,-17,-81,68,3928,4,-3,881,1757,1858,2080,2200,2018,1797,1871,1989
403527,-45804,-15516,-34105,-1337,0,0,-20,18,-14,-80,55,3930,-8,-4,881,1757,1858,2080,2200,2018,1797,1871,1989
404528,-45804,-15508,-34040,-1272,0,0,-22,18,-15,-80,71,3916,-1,-1,881,1757,1858,2080,2200,2018,1797,1871,1989
405529,-45812,-15512,-33975,-1207,0,0,-20,18,-19,-75,62,3945,11,5,881,1757,1858,2080,2200,2018,1797,1871,1989
406530,-45800,-15496,-33910,-1142,0,0,-19,18,-20,-88,43,3938,6,4,881,1757,1859,2080,2200,2017,1798,1871,1989
407531,-45816,-15504,-33845,-1077,0,0,-19,18,-18,-78,74,3927,4,3,881,1757,1859,2080,2200,2017,1798,1871,1989
408532,-45796,-15500,-33780,-1012,0,0,-19,19,-16,-58,75,3934,-3,7,881,1757,1859,2080,2200,2017,1798,1871,1989
409533,-45796,-15500,-33715,-947,0,0,-18,16,-15,-83,67,3939,-8,6,881,1757,1859,2080,2200,2017,1798,1871,1989
410534,-45788,-15500,-33650,-882,0,0,-18,17,-17,-81,59,3918,-5,7,880,1757,1859,2080,2200,2017,1798,1871,1989
411535,-45816,-15504,-33585,-817,0,0,-18,20,-16,-94,58,3914,11,6,881,1757,1859,2080,2201,2017,1798,1871,1989
412536,-45812,-15508,-33520,-752,0,0,-20,20,-17,-82,38,3939,11,1,881,1757,1859,2080,2201,2017,1798,1871,1989
413537,-45812,-15504,-33455,-687,0,0,-18,18,-17,-104,53,3932,6,3,881,1757,1859,2080,2201,2017,1798,1871,1989
414538,-45808,-15508,-33390,-622,0,0,-20,18,-16,-111,69,3926,-8,8,881,1757,1859,2080,2201,2017,1798,1871,1989
415539,-45812,-15508,-33325,-557,0,0,-25,20,-17,-107,51,3958,1,8,881,1757,1859,2080,2201,2017,1798,1871,1989
416540,-45812,-15508,-33260,-492,0,0,-25,20,-17,-71,72,3959,7,8,881,1757,1859,2080,2201,2017,1798,1871,1989
417541,-45808,-15508,-33195,-427,0,0,-20,20,-17,-70,53,3955,11,5,881,1757,1858,2080,2199,2017,1798,1871,1990
418542,-45804,-15504,-33130,-362,0,0,-18,18,-17,-94,48,3930,0,5,881,1757,1858,2080,2199,2017,1798,1871,1990
419543,-45804,-15520,-33065,-297,0,0,-18,15,-15,-103,59,3948,6,-1,881,1757,1858,2080,2199,2017,1798,1871,1990
420544,-45804,-15500,-33000,-232,0,0,-21,16,-17,-108,65,3973,-1,-3,881,1757,1858,2080,2199,2017,1798,1871,1990
421545,-45804,-15512,-32935,-167,0,0,-19,20,-15,-91,76,3933,-7,2,881,1757,1858,2080,2199,2017,1798,1871,1990
422546,-45804,-15496,-32870,-102,0,0,-22,18,-15,-68,76,3934,-8,7,881,1756,1858,2080,2200,2018,1798,1870,1990
423547,-45808,-15520,-32805,-37,0,0,-23,18,-15,-97,85,3959,-6,-4,881,1756,1858,2080,2200,2018,1798,1870,1990
424548,-45812,-15496,-32740,28,0,0,-20,19,-16,-78,84,3947,-2,-7,881,1756,1858,2080,2200,2018,1798,1870,1990
425549,-45812,-15504,-32675,93,0,0,-19,20,-16,-56,66,3948,1,-7,881,1756,1858,2080,2200,2018,1798,1870,1990
426550,-45808,-15508,-32610,158,0,0,-20,19,-17,-42,68,3949,8,-4,881,1756,1858,2080,2200,2018,1798,1870,1990
427551,-45804,-15516,-32545,223,0,0,-21,18,-18,-78,67,3934,11,-3,880,1756,1858,2080,2200,2018,1798,1870,1990
428552,-45804,-15512,-32480,288,0,0,-21,17,-16,-74,84,3939,-7,-7,881,1757,1859,2080,2200,2018,1798,1871,1989
429553,-45808,-15512,-32415,353,0,0,-21,19,-12,-67,58,3976,-7,-3,881,1757,1859,2080,2200,2018,1798,1871,1989
430554,-45796,-15504,-32350,418,0,0,-21,20,-12,-89,52,3946,-1,-3,881,1757,1859,2080,2200,2018,1798,1871,1989
431555,-45808,-15504,-32285,483,0,0,-20,20,-13,-58,50,3943,5,-4,881,1757,1859,2080,2200,2018,1798,1871,1989
432556,-45800,-15500,-32220,548,0,0,-20,18,-15,-73,65,3939,11,2,881,1757,1859,2080,2200,2018,1798,1871,1989
433557,-45812,-15504,-32155,613,0,0,-23,20,-16,-70,73,3954,-1,3,881,1757,1859,2081,2201,2018,1798,1871,1990
434558,-45804,-15504,-32090,678,0,0,-22,19,-16,-73,65,3938,-8,7,881,1757,1859,2081,2201,2018,1798,1871,1990
435559,-45800,-15500,-32025,743,0,0,-20,19,-14,-63,62,3933,1,3,881,1757,1859,2081,2201,2018,1798,1871,1990
436560,-45804,-15516,-31960,808,0,0,-20,20,-14,-80,47,3932,10,3,881,1757,1859,2081,2201,2018,1798,1871,1990
437561,-45808,-15496,-31895,873,0,0,-23,20,-15,-105,71,3925,11,3,881,1757,1859,2081,2201,2018,1798,1871,1990
438562,-45808,-15504,-31830,938,0,0,-24,20,-15,-108,62,3913,1,-4,881,1757,1859,2081,2201,2018,1798,1871,1990
439563,-45800,-15524,-31765,1003,0,0,-25,20,-14,-99,59,3923,-8,-2,881,1757,1859,2080,2201,2018,1798,1871,1989
440564,-45816,-15504,-31700,1068,0,0,-24,19,-14,-82,53,3924,-5,1,881,1757,1859,2080,2201,2018,1798,1871,1989
441565,-45812,-15512,-31635,1133,0,0,-21,20,-16,-72,38,3968,7,-6,881,1757,1859,2080,2201,2018,1798,1871,1989
442566,-45800,-15500,-31570,1198,0,0,-20,20,-18,-81,56,3969,11,-6,881,1757,1859,2080,2201,2018,1798,1871,1989
443567,-45816,-15504,-31505,1263,0,0,-20,20,-17,-63,62,3956,11,-7,881,1757,1859,2080,2201,2018,1798,1871,1989
444568,-45808,-15512,-31440,1328,0,0,-22,19,-15,-86,62,3958,4,0,880,1757,1859,2080,2202,2018,1798,1871,1991
445569,-45816,-15512,-31375,1393,0,0,-23,19,-15,-88,52,3956,-8,-5,881,1757,1859,2080,2202,2018,1798,1871,1991
446570,-45796,-15508,-31310,1458,0,0,-21,19,-15,-79,54,3947,-7,-7,881,1757,1859,2080,2202,2018,1798,1871,1991
447571,-45796,-15504,-31245,1523,0,0,-20,20,-15,-76,47,3946,1,-2,881,1757,1859,2080,2202,2018,1798,1871,1991
448572,-45804,-15504,-31180,1588,0,0,-21,19,-15,-105,55,3938,11,0,881,1757,1859,2080,2202,2018,1798,1871,1991
449573,-45816,-15504,-31115,1653,0,0,-20,19,-14,-105,83,3947,8,3,881,1757,1859,2080,2202,2018,1798,1871,1991
450574,-45800,-15512,-31050,1718,0,0,-20,19,-17,-108,63,3942,-5,7,881,1757,1859,2081,2202,2017,1798,1871,1990
451575,-45808,-15500,-30985,1783,0,0,-21,23,-17,-112,78,3957,-8,0,881,1757,1859,2081,2202,2017,1798,1871,1990
452576,-45808,-15508,-30920,1848,0,0,-22,21,-17,-95,80,3956,-5,-4,881,1757,1859,2081,2202,2017,1798,1871,1990
453577,-45808,-15500,-30855,1913,0,0,-23,18,-14,-88,58,3902,7,-6,881,1757,1859,2081,2202,2017,1798,1871,1990
454578,-45812,-15488,-30656,2112,0,0,-21,18,-16,-72,62,3916,11,-5,881,1757,1859,2081,2202,2017,1798,1871,1990
455579,-45808,-15520,-30591,2177,0,0,-22,20,-17,-90,73,3930,11,5,881,1757,1858,2080,2200,2017,1797,1870,1989
456580,-45808,-15512,-30526,2242,0,0,-21,20,-19,-91,60,3919,4,2,881,1757,1858,2080,2200,2017,1797,1870,1989
457581,-45808,-15512,-30461,2307,0,0,-22,18,-17,-85,54,3935,-7,-1,881,1757,1858,2080,2200,2017,1797,1870,1989
458582,-45792,-15500,-30396,2372,0,0,-22,17,-14,-90,56,3949,-8,-2,881,1757,1858,2080,2200,2017,1797,1870,1989
459583,-45796,-15504,-30331,2437,0,0,-24,18,-17,-83,77,3936,11,-6,881,1757,1858,2080,2200,2017,1797,1870,1989
460584,-45804,-15512,-30266,2502,0,0,-23,20,-19,-73,35,3928,9,-6,881,1757,1858,2080,2200,2017,1797,1870,1989
461585,-45788,-15508,-30201,2567,0,0,-22,20,-19,-83,38,3959,-4,-6,881,1757,1859,2080,2201,2018,1797,1871,1989
462586,-45804,-15500,-30136,2632,0,0,-19,17,-18,-70,75,3943,-7,-7,881,1757,1859,2080,2201,2018,1797,1871,1989
463587,-45808,-15512,-30071,2697,0,0,-20,15,-17,-75,75,3948,-5,-5,881,1757,1859,2080,2201,2018,1797,1871,1989
464588,-45800,-15508,-30006,2762,0,0,-21,17,-18,-84,48,3965,-8,-6,881,1757,1859,2080,2201,2018,1797,1871,1989
465589,-45800,-15500,-29941,2827,0,0,-21,21,-18,-91,57,3941,-2,-7,881,1757,1859,2080,2201,2018,1797,1871,1989
466590,-45804,-15508,-29876,2892,0,0,-22,21,-16,-112,68,3905,0,-7,881,1757,1858,2081,2201,2017,1798,1871,1990
467591,-45812,-15496,-29811,2957,0,0,-23,18,-18,-82,49,3912,11,-6,881,1757,1858,2081,2201,2017,1798,1871,1990
468592,-45804,-15520,-29746,3022,0,0,-20,17,-17,-92,78,3944,10,-6,881,1757,1858,2081,2201,2017,1798,1871,1990
469593,-45792,-15508,-29681,3087,0,0,-21,17,-16,-93,78,3950,5,-6,881,1757,1858,2081,2201,2017,1798,1871,1990
470594,-45812,-15504,-29616,3152,0,0,-22,18,-15,-101,73,3961,-7,1,881,1757,1858,2081,2201,2017,1798,1871,1990
471595,-45812,-15520,-29551,3217,0,0,-22,22,-14,-90,46,3968,-7,2,881,1757,1858,2081,2201,2017,1798,1871,1990
472596,-45808,-15508,-29486,3282,0,0,-22,21,-13,-80,66,3936,-7,3,881,1757,1858,2081,2201,2017,1797,1871,1989
473597,-45800,-15500,-29421,3347,0,0,-25,17,-15,-85,73,3951,0,8,881,1757,1858,2081,2201,2017,1797,1871,1989
474598,-45816,-15512,-29356,3412,0,0,-23,12,-15,-100,74,3937,4,8,881,1757,1858,2081,2201,2017,1797,1871,1989
475599,-45804,-15508,-29291,3477,0,0,-22,12,-15,-82,69,3947,7,5,881,1757,1858,2081,2201,2017,1797,1871,1989
476600,-45788,-15516,-29226,3542,0,0,-20,15,-17,-96,60,3967,10,8,881,1757,1858,2081,2201,2017,1797,1871,1989
477601,-45804,-15504,-29161,3607,0,0,-18,16,-17,-79,60,3959,-1,8,881,1757,1858,2080,2201,2017,1798,1870,1989
478602,-45808,-15504,-29096,3672,0,0,-21,17,-16,-85,42,3929,-7,2,880,1757,1858,2080,2201,2017,1798,1870,1989
479603,-45804,-15516,-29031,3737,0,0,-22,18,-16,-94,48,3937,-8,6,881,1757,1858,2080,2201,2017,1798,1870,1989
480604,-45800,-15508,-28966,3802,0,0,-23,19,-15,-87,35,3964,-3,7,881,1757,1858,2080,2201,2017,1798,1870,1989
481605,-45816,-15508,-28901,3867,0,0,-21,18,-16,-73,56,3962,-3,8,881,1757,1858,2080,2201,2017,1798,1870,1989
482606,-45800,-15508,-28836,3932,0,0,-19,15,-17,-79,85,3971,2,3,881,1757,1858,2080,2201,2017,1798,1870,1989
483607,-45808,-15508,-28771,3997,0,0,-17,14,-16,-67,63,3924,11,7,881,1757,1859,2080,2201,2017,1797,1871,1990
484608,-45812,-15504,-28706,4062,0,0,-16,18,-14,-63,72,3902,8,8,881,1757,1859,2080,2201,2017,1797,1871,1990
485609,-45816,-15520,-28641,4127,0,0,-16,20,-13,-75,61,3941,-5,7,881,1757,1859,2080,2201,2017,1797,1871,1990
486610,-45820,-15512,-28576,4192,0,0,-18,17,-15,-93,69,3922,-8,8,881,1757,1859,2080,2201,2017,1797,1871,1990
487611,-45804,-15504,-28511,4257,0,0,-18,17,-19,-94,58,3902,-8,7,881,1757,1859,2080,2201,2017,1797,1871,1990
488612,-45820,-15516,-28446,4322,0,0,-18,16,-16,-81,63,3972,-5,8,881,1758,1858,2080,2202,2018,1798,1871,1989
489613,-45800,-15504,-28381,4387,0,0,-19,16,-14,-60,67,3950,6,5,881,1758,1858,2080,2202,2018,1798,1871,1989
490614,-45804,-15504,-28316,4452,0,0,-20,17,-14,-72,64,3903,9,5,881,1758,1858,2080,2202,2018,1798,1871,1989
491615,-45804,-15516,-28251,4517,0,0,-20,18,-16,-97,58,3943,8,-2,881,1758,1858,2080,2202,2018,1798,1871,1989
492616,-45804,-15500,-28186,4582,0,0,-20,21,-13,-66,74,3964,-6,-3,881,1758,1858,2080,2202,2018,1798,1871,1989
493617,-45800,-15508,-28121,4647,0,0,-19,19,-16,-43,78,3920,-8,-3,881,1758,1858,2080,2202,2018,1798,1871,1989
494618,-45812,-15504,-28056,4712,0,0,-20,15,-16,-78,71,3931,-2,-6,881,1757,1859,2080,2201,2018,1798,1871,1991
495619,-45816,-15504,-27991,4777,0,0,-21,13,-15,-84,70,3947,11,1,880,1757,1859,2080,2201,2018,1798,1871,1991
496620,-45820,-15504,-27926,4842,0,0,-20,14,-14,-80,42,3951,7,6,881,1757,1859,2080,2201,2018,1798,1871,1991
497621,-45808,-15500,-27861,4907,0,0,-20,16,-15,-82,36,3957,9,0,881,1757,1859,2080,2201,2018,1798,1871,1991
498622,-45792,-15512,-27796,4972,0,0,-22,18,-15,-90,41,3943,10,-5,881,1757,1859,2080,2201,2018,1798,1871,1991
499623,-45816,-15508,-27731,5037,0,0,-22,21,-16,-91,38,3946,5,-7,881,1757,1858,2081,2201,2019,1797,1869,1987
500624,-45796,-15496,-27666,5102,0,0,-19,21,-13,-69,58,3934,-8,3,881,1757,1858,2081,2201,2019,1797,1869,1987
501625,-45812,-15508,-27601,5167,0,0,-19,20,-13,-85,56,3971,2,6,881,1757,1858,2081,2201,2019,1797,1869,1987
502626,-45812,-15504,-27536,5232,0,0,-21,23,-16,-109,45,3969,11,6,881,1757,1858,2081,2201,2019,1797,1869,1987
503627,-45800,-15504,-27471,5297,0,0,-21,21,-16,-105,59,3953,-1,3,881,1757,1858,2081,2201,2019,1797,1869,1987
504628,-45816,-15508,-27406,5362,0,0,-23,18,-16,-77,71,3937,-8,2,881,1757,1858,2081,2201,2019,1797,1869,1987
505629,-45808,-15496,-27341,5427,0,0,-22,17,-16,-78,54,3948,-6,-4,881,1757,1858,2079,2202,2018,1798,1871,1989
506630,-45788,-15504,-27276,5492,0,0,-21,21,-14,-80,65,3958,-8,-6,881,1757,1858,2079,2202,2018,1798,1871,1989
507631,-45812,-15504,-27211,5557,0,0,-22,17,-14,-84,62,3974,-4,-3,881,1757,1858,2079,2202,2018,1798,1871,1989
508632,-45808,-15504,-27146,5622,0,0,-20,17,-15,-76,55,3960,-1,7,881,1757,1858,2079,2202,2018,1798,1871,1989
509633,-45796,-15512,-27081,5687,0,0,-20,17,-15,-67,54,3969,11,-4,881,1757,1858,2079,2202,2018,1798,1871,1989
510634,-45812,-15512,-27016,5752,0,0,-21,16,-15,-83,65,3956,5,-6,881,1756,1858,2077,2199,2015,1798,1870,1990
511635,-45800,-15516,-26951,5817,0,0,-23,17,-14,-81,67,3958,1,-5,881,1756,1858,2077,2199,2015,1798,1870,1990
512636,-45808,-15516,-26886,5882,0,0,-23,19,-16,-95,55,3961,-8,-5,880,1756,1858,2077,2199,2015,1798,1870,1990
513637,-45812,-15512,-26821,5947,0,0,-22,18,-17,-46,57,3942,0,-5,881,1756,1858,2077,2199,2015,1798,1870,1990
514638,-45812,-15516,-26756,6012,0,0,-21,17,-18,-71,68,3952,8,-5,881,1756,1858,2077,2199,2015,1798,1870,1990
515639,-45800,-15504,-26691,6077,0,0,-24,15,-15,-76,64,3948,5,-6,881,1756,1858,2077,2199,2015,1798,1870,1990
516640,-45800,-15508,-26626,6142,0,0,-24,15,-16,-99,54,3950,-7,-4,881,1756,1858,2080,2201,2017,1797,1870,1989
517641,-45812,-15504,-26561,6207,0,0,-24,18,-16,-103,66,3945,-8,-3,881,1756,1858,2080,2201,2017,1797,1870,1989
518642,-45804,-15508,-26496,6272,0,0,-21,19,-17,-89,61,3953,7,7,881,1756,1858,2080,2201,2017,1797,1870,1989
519643,-45800,-15508,-26431,6337,0,0,-20,17,-16,-85,58,3909,11,8,881,1756,1858,2080,2201,2017,1797,1870,1989
520644,-45804,-15512,-26366,6402,0,0,-20,17,-16,-77,66,3878,8,7,881,1756,1858,2080,2201,2017,1797,1870,1989
521645,-45812,-15504,-26301,6467,0,0,-19,17,-16,-79,46,3924,-5,3,881,1757,1860,2081,2203,2017,1795,1870,1990
522646,-45812,-15500,-26236,6532,0,0,-19,19,-13,-60,51,3914,-8,3,881,1757,1860,2081,2203,2017,1795,1870,1990
523647,-45804,-15500,-26171,6597,0,0,-21,20,-16,-60,52,3905,-8,1,881,1757,1860,2081,2203,2017,1795,1870,1990
524648,-45804,-15520,-26106,6662,0,0,-22,20,-18,-82,76,3942,-2,-7,881,1757,1860,2081,2203,2017,1795,1870,1990
525649,-45804,-15520,-26041,6727,0,0,-20,19,-16,-72,78,3930,7,-5,881,1757,1860,2081,2203,2017,1795,1870,1990
526650,-45808,-15504,-25976,6792,0,0,-21,16,-15,-70,71,3924,11,-1,881,1757,1860,2081,2203,2017,1795,1870,1990
527651,-45812,-15512,-25911,6857,0,0,-22,15,-15,-71,63,3908,4,5,881,1758,1859,2081,2202,2017,1797,1871,1989
528652,-45808,-15496,-25846,6922,0,0,-23,16,-16,-88,58,3915,-7,6,881,1758,1859,2081,2202,2017,1797,1871,1989
529653,-45812,-15512,-25781,6987,0,0,-22,18,-19,-86,34,3924,-6,1,880,1758,1859,2081,2202,2017,1797,1871,1989
530654,-45816,-15516,-25716,7052,0,0,-19,16,-19,-71,54,3899,9,3,881,1758,1859,2081,2202,2017,1797,1871,1989
531655,-45804,-15500,-25651,7117,0,0,-19,15,-17,-95,35,3943,6,3,881,1758,1859,2081,2202,2017,1797,1871,1989
532656,-45804,-15508,-25586,7182,0,0,-22,17,-15,-73,35,3933,-5,6,881,1757,1859,2081,2203,2017,1795,1870,1990
533657,-45796,-15508,-25521,7247,0,0,-22,18,-15,-87,57,3935,-6,8,881,1757,1859,2081,2203,2017,1795,1870,1990
534658,-45804,-15508,-25456,7312,0,0,-22,18,-17,-75,87,3907,6,7,881,1757,1859,2081,2203,2017,1795,1870,1990
535659,-45804,-15512,-25391,7377,0,0,-20,18,-18,-80,109,3936,9,8,881,1757,1859,2081,2203,2017,1795,1870,1990
536660,-45796,-15500,-25326,7442,0,0,-20,18,-16,-38,74,3940,-7,3,881,1757,1859,2081,2203,2017,1795,1870,1990
537661,-45800,-15516,-25261,7507,0,0,-20,20,-13,-54,56,3917,1,-2,881,1757,1859,2081,2203,2017,1795,1870,1990
538662,-45816,-15508,-25196,7572,0,0,-22,18,-15,-103,69,3936,10,-3,881,1757,1859,2080,2202,2018,1797,1870,1989
539663,-45812,-15500,-25131,7637,0,0,-22,17,-14,-82,69,3951,0,-7,881,1757,1859,2080,2202,2018,1797,1870,1989
540664,-45812,-15508,-25066,7702,0,0,-20,17,-14,-84,49,3946,-5,-7,881,1757,1859,2080,2202,2018,1797,1870,1989
541665,-45800,-15516,-25001,7767,0,0,-19,18,-16,-89,48,3933,4,-6,881,1757,1859,2080,2202,2018,1797,1870,1989
542666,-45804,-15508,-24936,7832,0,0,-17,18,-15,-89,61,3934,8,-7,881,1757,1859,2080,2202,2018,1797,1870,1989
543667,-45796,-15508,-24871,7897,0,0,-19,17,-17,-96,72,3924,-7,-7,881,1755,1855,2079,2199,2015,1799,1874,1992
544668,-45804,-15504,-24806,7962,0,0,-21,16,-19,-82,52,3961,-7,-7,881,1755,1855,2079,2199,2015,1799,1874,1992
545669,-45800,-15508,-24741,8027,0,0,-19,16,-16,-88,31,3921,1,-1,881,1755,1855,2079,2199,2015,1799,1874,1992
546670,-45808,-15500,-24676,8092,0,0,-19,16,-15,-116,40,3931,8,-3,880,1755,1855,2079,2199,2015,1799,1874,1992
547671,-45800,-15504,-24611,8157,0,0,-19,16,-17,-93,58,3930,0,-6,881,1755,1855,2079,2199,2015,1799,1874,1992
548672,-45804,-15504,-24546,8222,0,0,-26,18,-17,-71,78,3966,-7,0,881,1755,1855,2079,2199,2015,1799,1874,1992
549673,-45800,-15500,-24481,8287,0,0,-27,20,-17,-70,61,3957,8,2,881,1757,1859,2082,2203,2018,1798,1871,1989
550674,-45812,-15508,-24416,8352,0,0,-22,20,-19,-94,64,3983,8,6,881,1757,1859,2082,2203,2018,1798,1871,1989
551675,-45808,-15496,-24351,8417,0,0,-18,20,-20,-93,63,3966,-8,-6,881,1757,1859,2082,2203,2018,1798,1871,1989
552676,-45812,-15508,-24286,8482,0,0,-21,19,-18,-71,54,3956,7,-5,881,1757,1859,2082,2203,2018,1798,1871,1989
553677,-45816,-15508,-24221,8547,0,0,-24,15,-16,-88,79,3956,11,-4,881,1757,1859,2082,2203,2018,1798,1871,1989
554678,-45800,-15500,-24156,8612,0,0,-24,15,-17,-75,47,3974,-4,7,881,1757,1859,2079,2199,2015,1799,1871,1992
555679,-45800,-15512,-24091,8677,0,0,-22,17,-17,-89,55,3970,-3,8,881,1757,1859,2079,2199,2015,1799,1871,1992
556680,-45804,-15508,-24026,8742,0,0,-21,18,-18,-78,63,3946,7,7,881,1757,1859,2079,2199,2015,1799,1871,1992
557681,-45800,-15492,-23961,8807,0,0,-21,15,-18,-79,51,3948,6,-4,881,1757,1859,2079,2199,2015,1799,1871,1992
558682,-45800,-15508,-23896,8872,0,0,-21,16,-19,-85,57,3930,-8,-6,881,1757,1859,2079,2199,2015,1799,1871,1992
559683,-45804,-15504,-23831,8937,0,0,-18,17,-19,-92,42,3958,-1,-6,881,1757,1859,2079,2199,2015,1799,1871,1992
560684,-45812,-15512,-23766,9002,0,0,-18,19,-16,-87,51,3955,11,-4,881,1756,1859,2081,2202,2017,1798,1871,1989
561685,-45792,-15500,-23701,9067,0,0,-21,17,-16,-78,74,3958,-3,-4,881,1756,1859,2081,2202,2017,1798,1871,1989
562686,-45808,-15508,-23636,9132,0,0,-22,17,-16,-73,60,3948,-8,-4,881,1756,1859,2081,2202,2017,1798,1871,1989
563687,-45800,-15496,-23571,9197,0,0,-22,18,-15,-74,43,3973,4,-5,880,1756,1859,2081,2202,2017,1798,1871,1989
564688,-45796,-15512,-23506,9262,0,0,-21,21,-18,-111,50,3956,11,-7,881,1756,1859,2081,2202,2017,1798,1871,1989
565689,-45808,-15504,-23441,9327,0,0,-19,21,-18,-85,44,3964,8,-7,881,1755,1855,2082,2204,2020,1800,1872,1992
566690,-45804,-15492,-23376,9392,0,0,-19,17,-17,-54,62,3932,-4,-3,881,1755,1855,2082,2204,2020,1800,1872,1992
567691,-45812,-15512,-23311,9457,0,0,-22,14,-16,-57,57,3939,-7,-4,881,1755,1855,2082,2204,2020,1800,1872,1992
568692,-45812,-15508,-23246,9522,0,0,-25,15,-16,-89,60,3959,-3,-2,881,1755,1855,2082,2204,2020,1800,1872,1992
569693,-45800,-15504,-23181,9587,0,0,-24,19,-15,-107,59,3987,6,5,881,1755,1855,2082,2204,2020,1800,1872,1992
570699,-45800,-15496,-23116,9652,0,0,-22,20,-17,-88,62,3976,11,6,881,1755,1855,2082,2204,2020,1800,1872,1992
571695,-45808,-15508,-23051,9717,0,0,-21,19,-16,-88,64,3949,0,2,881,1757,1859,2081,2201,2017,1797,1871,1990
572696,-45812,-15508,-22986,9782,0,0,-21,18,-13,-77,43,3940,-7,7,881,1757,1859,2081,2201,2017,1797,1871,1990
573697,-45796,-15500,-22921,9847,0,0,-22,18,-14,-79,54,3961,11,7,881,1757,1859,2081,2201,2017,1797,1871,1990
574698,-45808,-15496,-22856,9912,0,0,-22,19,-16,-76,68,3946,7,6,881,1757,1859,2081,2201,2017,1797,1871,1990
575699,-45804,-15508,-22791,9977,0,0,-21,22,-17,-109,73,3937,-8,-2,881,1757,1859,2081,2201,2017,1797,1871,1990
576700,-45812,-15500,-22726,10042,0,0,-19,20,-12,-86,68,3942,-5,-1,881,1759,1860,2082,2204,2018,1798,1872,1989
577701,-45808,-15508,-22661,10107,0,0,-23,17,-12,-76,84,3948,-2,-3,881,1759,1860,2082,2204,2018,1798,1872,1989
578702,-45820,-15516,-22596,10172,0,0,-22,17,-13,-91,61,3981,9,-7,881,1759,1860,2082,2204,2018,1798,1872,1989
579703,-45800,-15504,-22531,10237,0,0,-22,18,-14,-89,65,3977,9,-6,881,1759,1860,2082,2204,2018,1798,1872,1989
580704,-45808,-15504,-22466,10302,0,0,-20,19,-15,-81,48,3968,-3,-5,880,1759,1860,2082,2204,2018,1798,1872,1989
581705,-45820,-15508,-22401,10367,0,0,-21,20,-14,-91,55,3926,-7,-7,880,1757,1858,2080,2202,2017,1798,1871,1989
582706,-45808,-15520,-22336,10432,0,0,-21,18,-13,-87,37,3906,3,-7,881,1757,1858,2080,2202,2017,1798,1871,1989
583707,-45812,-15508,-22271,10497,0,0,-21,18,-15,-94,56,3911,9,-6,881,1757,1858,2080,2202,2017,1798,1871,1989
584708,-45816,-15496,-22206,10562,0,0,-19,18,-14,-71,59,3905,7,6,881,1757,1858,2080,2202,2017,1798,1871,1989
585709,-45804,-15508,-22141,10627,0,0,-21,20,-12,-60,46,3954,-7,8,881,1757,1858,2080,2202,2017,1798,1871,1989
586710,-45820,-15512,-22076,10692,0,0,-20,22,-14,-82,51,3973,-8,8,881,1757,1858,2080,2202,2017,1798,1871,1989
587711,-45792,-15504,-22011,10757,0,0,-20,22,-17,-99,50,3958,-3,1,881,1757,1858,2081,2202,2017,1797,1870,1989
588712,-45804,-15504,-21946,10822,0,0,-21,21,-17,-90,40,3928,11,-2,881,1757,1858,2081,2202,2017,1797,1870,1989
589713,-45808,-15508,-21881,10887,0,0,-19,18,-15,-75,45,3922,5,-6,881,1757,1858,2081,2202,2017,1797,1870,1989
590714,-45808,-15508,-21816,10952,0,0,-20,18,-15,-92,62,3966,-7,-5,881,1757,1858,2081,2202,2017,1797,1870,1989
591715,-45800,-15508,-21751,11017,0,0,-23,18,-14,-107,70,3956,7,-6,881,1757,1858,2081,2202,2017,1797,1870,1989
592716,-45808,-15516,-21686,11082,0,0,-23,18,-13,-95,52,3952,11,-4,881,1756,1858,2081,2201,2017,1797,1871,1989
593717,-45808,-15504,-21621,11147,0,0,-20,17,-14,-88,56,3950,6,5,881,1756,1858,2081,2201,2017,1797,1871,1989
594718,-45804,-15504,-21556,11212,0,0,-18,20,-16,-82,63,3935,0,6,881,1756,1858,2081,2201,2017,1797,1871,1989
595719,-45804,-15504,-21491,11277,0,0,-18,21,-19,-97,71,3934,-2,8,881,1756,1858,2081,2201,2017,1797,1871,1989
596720,-45804,-15500,-21426,11342,0,0,-20,19,-17,-92,66,3914,-6,5,880,1756,1858,2081,2201,2017,1797,1871,1989
597721,-45800,-15504,-21361,11407,0,0,-19,17,-18,-73,47,3923,-6,6,880,1756,1858,2081,2201,2017,1797,1871,1989
598722,-45804,-15492,-21296,11472,0,0,-20,16,-18,-88,44,3921,1,7,881,1757,1860,2080,2201,2017,1797,1870,1989
599723,-45808,-15504,-21231,11537,0,0,-18,14,-19,-89,55,3938,7,-1,881,1757,1860,2080,2201,2017,1797,1870,1989
600724,-45808,-15500,-21166,11602,0,0,-17,16,-20,-66,66,3926,-7,-3,881,1757,1860,2080,2201,2017,1797,1870,1989
601725,-45804,-15500,-21101,11667,0,0,-19,16,-21,-80,54,3944,-7,-4,881,1757,1860,2080,2201,2017,1797,1870,1989
602726,-45804,-15512,-21036,11732,0,0,-21,17,-17,-92,66,3947,4,-3,881,1757,1860,2080,2201,2017,1797,1870,1989
603727,-45808,-15500,-20971,11797,0,0,-20,18,-17,-98,62,3922,10,7,881,1757,1859,2080,2202,2018,1798,1871,1990
604728,-45808,-15504,-20906,11862,0,0,-21,20,-19,-101,46,3973,1,5,881,1757,1859,2080,2202,2018,1798,1871,1990
605729,-45804,-15508,-20841,11927,0,0,-23,17,-21,-92,47,3952,-6,-3,881,1757,1859,2080,2202,2018,1798,1871,1990
606730,-45804,-15504,-20776,11992,0,0,-22,18,-18,-82,47,3944,8,0,881,1757,1859,2080,2202,2018,1798,1871,1990
607731,-45792,-15512,-20711,12057,0,0,-20,18,-18,-75,48,3952,11,-4,881,1757,1859,2080,2202,2018,1798,1871,1990
608732,-45812,-15516,-20646,12122,0,0,-18,16,-17,-95,43,3979,5,-3,881,1757,1859,2080,2202,2018,1798,1871,1990
609733,-45796,-15504,-20581,12187,0,0,-18,15,-16,-94,56,3924,-7,4,881,1757,1859,2080,2203,2018,1798,1871,1990
610734,-45800,-15508,-20516,12252,0,0,-20,14,-14,-86,56,3946,-8,7,881,1757,1859,2080,2203,2018,1798,1871,1990
611735,-45808,-15504,-20451,12317,0,0,-21,15,-14,-71,59,3972,-1,4,881,1757,1859,2080,2203,2018,1798,1871,1990
612736,-45804,-15508,-20386,12382,0,0,-20,16,-17,-79,55,3952,11,-4,881,1757,1859,2080,2203,2018,1798,1871,1990
613737,-45804,-15508,-20321,12447,0,0,-20,19,-18,-75,75,3945,11,-3,881,1757,1859,2080,2203,2018,1798,1871,1990
614738,-45804,-15512,-20256,12512,0,0,-21,19,-18,-94,64,3950,-5,-3,880,1756,1858,2080,2202,2018,1798,1871,1989
615739,-45792,-15500,-20191,12577,0,0,-22,19,-18,-94,58,3938,-8,2,880,1756,1858,2080,2202,2018,1798,1871,1989
616740,-45796,-15516,-20126,12642,0,0,-21,18,-18,-119,56,3954,-3,2,881,1756,1858,2080,2202,2018,1798,1871,1989
617741,-45808,-15504,-20061,12707,0,0,-22,15,-16,-117,71,3980,11,-6,881,1756,1858,2080,2202,2018,1798,1871,1989
618743,-45808,-15516,-19996,12772,0,0,-20,18,-17,-91,43,3972,-3,-7,881,1756,1858,2080,2202,2018,1798,1871,1989
619743,-45812,-15512,-19931,12837,0,0,-21,20,-17,-83,71,3957,-7,-5,881,1756,1858,2080,2202,2018,1798,1871,1989
620744,-45800,-15500,-19866,12902,0,0,-22,18,-18,-97,71,3949,-2,6,881,1757,1857,2080,2201,2018,1797,1871,1989
621745,-45804,-15520,-19801,12967,0,0,-22,18,-15,-73,69,3958,11,6,881,1757,1857,2080,2201,2018,1797,1871,1989
622746,-45804,-15496,-19736,13032,0,0,-22,16,-13,-100,70,3965,8,8,881,1757,1857,2080,2201,2018,1797,1871,1989
623747,-45800,-15500,-19671,13097,0,0,-22,17,-15,-83,73,3954,0,3,881,1757,1857,2080,2201,2018,1797,1871,1989
624748,-45804,-15500,-19606,13162,0,0,-21,18,-20,-77,87,3953,-8,-1,881,1757,1857,2080,2201,2018,1797,1871,1989
625749,-45800,-15508,-19541,13227,0,0,-21,18,-18,-78,72,3955,-6,-6,881,1756,1857,2080,2202,2017,1798,1871,1989
626750,-45804,-15508,-19476,13292,0,0,-20,18,-16,-88,68,3953,7,-5,881,1756,1857,2080,2202,2017,1798,1871,1989
627751,-45812,-15520,-19411,13357,0,0,-21,18,-17,-100,81,3918,11,-5,881,1756,1857,2080,2202,2017,1798,1871,1989
628752,-45800,-15512,-19346,13422,0,0,-24,17,-15,-98,69,3908,8,-4,881,1756,1857,2080,2202,2017,1798,1871,1989
629753,-45800,-15508,-19281,13487,0,0,-24,17,-14,-73,58,3931,-5,0,881,1756,1857,2080,2202,2017,1798,1871,1989
630754,-45796,-15504,-19216,13552,0,0,-23,18,-11,-67,54,3932,-6,0,881,1756,1857,2080,2202,2017,1798,1871,1989
631755,-45812,-15504,-19151,13617,0,0,-25,18,-13,-85,36,3917,8,-3,880,1756,1859,2080,2203,2017,1797,1870,1990
632756,-45804,-15508,-19086,13682,0,0,-24,18,-16,-76,71,3937,8,0,880,1756,1859,2080,2203,2017,1797,1870,1990
633757,-45808,-15504,-19021,13747,0,0,-23,20,-17,-92,51,3940,0,1,881,1756,1859,2080,2203,2017,1797,1870,1990
634758,-45796,-15504,-18956,13812,0,0,-23,18,-16,-90,60,3921,-6,1,881,1756,1859,2080,2203,2017,1797,1870,1990
635759,-45796,-15512,-18891,13877,0,0,-22,18,-17,-81,60,3894,-3,7,881,1756,1859,2080,2203,2017,1797,1870,1990
636760,-45804,-15500,-18826,13942,0,0,-19,21,-17,-78,31,3916,9,8,881,1757,1859,2082,2203,2018,1797,1871,1990
637761,-45804,-15500,-18761,14007,0,0,-20,21,-18,-87,39,3920,11,3,881,1757,1859,2082,2203,2018,1797,1871,1990
638762,-45808,-15508,-18696,14072,0,0,-22,17,-17,-80,46,3957,7,-6,881,1757,1859,2082,2203,2018,1797,1871,1990
639763,-45816,-15508,-18631,14137,0,0,-26,15,-14,-78,70,3980,-2,-7,881,1757,1859,2082,2203,2018,1797,1871,1990
640764,-45812,-15516,-18566,14202,0,0,-24,17,-14,-76,65,3943,-4,-7,881,1757,1859,2082,2203,2018,1797,1871,1990
641765,-45808,-15504,-18501,14267,0,0,-21,19,-15,-90,62,3955,-8,4,881,1757,1859,2082,2203,2018,1797,1871,1990
642766,-45808,-15512,-18436,14332,0,0,-20,19,-16,-86,60,3994,-2,7,881,1757,1859,2080,2203,2018,1798,1871,1990
643767,-45812,-15508,-18371,14397,0,0,-21,19,-15,-64,46,3960,-8,8,881,1757,1859,2080,2203,2018,1798,1871,1990
644768,-45808,-15504,-18306,14462,0,0,-23,19,-16,-58,58,3969,-5,4,881,1757,1859,2080,2203,2018,1798,1871,1990
645769,-45804,-15500,-18241,14527,0,0,-23,17,-19,-59,61,3979,0,5,881,1757,1859,2080,2203,2018,1798,1871,1990
646770,-45792,-15500,-18176,14592,0,0,-19,16,-19,-83,67,3967,5,5,881,1757,1859,2080,2203,2018,1798,1871,1990
647771,-45796,-15512,-18111,14657,0,0,-22,17,-18,-102,70,3978,11,-1,881,1757,1859,2081,2202,2017,1798,1871,1989
648772,-45808,-15492,-18046,14722,0,0,-23,18,-18,-82,39,3948,0,3,880,1757,1859,2081,2202,2017,1798,1871,1989
649773,-45816,-15496,-17981,14787,0,0,-23,16,-18,-101,52,3944,2,3,881,1757,1859,2081,2202,2017,1798,1871,1989
650774,-45800,-15516,-17916,14852,0,0,-20,19,-17,-105,47,3943,-5,-7,881,1757,1859,2081,2202,2017,1798,1871,1989
651775,-45796,-15512,-17851,14917,0,0,-21,19,-19,-87,61,3957,-8,-2,881,1757,1859,2081,2202,2017,1798,1871,1989
652776,-45808,-15512,-17786,14982,0,0,-21,18,-20,-77,70,3925,-7,6,881,1757,1859,2081,2202,2017,1798,1871,1989
653777,-45800,-15504,-17721,15047,0,0,-20,17,-20,-75,65,3908,6,2,881,1757,1859,2081,2203,2018,1798,1871,1990
654778,-45792,-15516,-17656,15112,0,0,-20,18,-19,-83,67,3931,11,-7,881,1757,1859,2081,2203,2018,1798,1871,1990
655779,-45808,-15516,-17591,15177,0,0,-21,21,-17,-116,71,3950,8,-5,881,1757,1859,2081,2203,2018,1798,1871,1990
656780,-45816,-15508,-17526,15242,0,0,-22,21,-16,-125,70,3978,-3,7,881,1757,1859,2081,2203,2018,1798,1871,1990
657781,-45812,-15508,-17461,15307,0,0,-21,19,-17,-94,51,3967,-7,5,881,1757,1859,2081,2203,2018,1798,1871,1990
658782,-45812,-15504,-17396,15372,0,0,-20,17,-16,-80,25,3957,-8,1,881,1756,1859,2081,2203,2017,1797,1871,1991
659783,-45808,-15512,-17331,15437,0,0,-20,19,-15,-73,41,3960,-4,1,881,1756,1859,2081,2203,2017,1797,1871,1991
660784,-45808,-15516,-17266,15502,0,0,-18,19,-15,-76,48,3915,3,-2,881,1756,1859,2081,2203,2017,1797,1871,1991
661785,-45800,-15504,-17201,15567,0,0,-20,18,-17,-101,33,3909,2,8,881,1756,1859,2081,2203,2017,1797,1871,1991
662786,-45812,-15504,-17136,15632,0,0,-20,18,-16,-97,45,3971,8,-4,881,1756,1859,2081,2203,2017,1797,1871,1991
663787,-45804,-15512,-17071,15697,0,0,-19,20,-15,-85,70,3947,10,-6,881,1756,1859,2081,2203,2017,1797,1871,1991
664788,-45816,-15492,-17006,15762,0,0,-20,19,-16,-84,66,3923,1,-5,881,1756,1859,2080,2203,2018,1797,1870,1989
665789,-45804,-15516,-16941,15827,0,0,-21,17,-16,-75,50,3957,-7,-5,881,1756,1859,2080,2203,2018,1797,1870,1989
666790,-45804,-15516,-16876,15892,0,0,-20,18,-16,-98,58,3949,-1,-5,880,1756,1859,2080,2203,2018,1797,1870,1989
667791,-45812,-15508,-16811,15957,0,0,-21,19,-18,-107,59,3953,-2,0,881,1756,1859,2080,2203,2018,1797,1870,1989
668792,-45804,-15504,-16746,16022,0,0,-22,19,-15,-88,46,3942,8,8,881,1756,1859,2080,2203,2018,1797,1870,1989
669793,-45804,-15512,-16681,16087,0,0,-22,20,-15,-87,32,3951,11,5,881,1755,1857,2079,2204,2020,1800,1872,1992
670794,-45816,-15504,-16616,16152,0,0,-23,21,-14,-82,65,3948,11,-4,881,1755,1857,2079,2204,2020,1800,1872,1992
671795,-45808,-15516,-16551,16217,0,0,-20,21,-16,-85,55,3933,11,0,881,1755,1857,2079,2204,2020,1800,1872,1992
672796,-45808,-15508,-16486,16282,0,0,-23,20,-15,-85,61,3957,10,7,881,1755,1857,2079,2204,2020,1800,1872,1992
673797,-45812,-15496,-16421,16347,0,0,-23,20,-14,-72,58,3982,11,8,881,1755,1857,2079,2204,2020,1800,1872,1992
674798,-45812,-15508,-16356,16412,0,0,-23,19,-15,-84,67,3969,10,-1,881,1755,1857,2079,2204,2020,1800,1872,1992
675799,-45812,-15500,-16291,16477,0,0,-22,19,-15,-93,58,3980,3,-3,881,1757,1858,2080,2203,2017,1797,1871,1990
676800,-45812,-15504,-16226,16542,0,0,-22,18,-14,-101,51,3967,3,-2,881,1757,1858,2080,2203,2017,1797,1871,1990
677801,-45804,-15512,-16161,16607,0,0,-22,17,-14,-91,70,3929,-6,-6,881,1757,1858,2080,2203,2017,1797,1871,1990
678802,-45808,-15504,-16096,16672,0,0,-20,17,-14,-83,57,3921,-8,-7,881,1757,1858,2080,2203,2017,1797,1871,1990
679803,-45804,-15500,-16031,16737,0,0,-20,17,-14,-69,65,3919,-7,4,881,1757,1858,2080,2203,2017,1797,1871,1990
680804,-45800,-15516,-15966,16802,0,0,-23,19,-14,-78,58,3922,1,-6,881,1758,1860,2084,2206,2018,1797,1872,1989
681805,-45808,-15512,-15901,16867,0,0,-24,20,-15,-88,40,3934,10,-5,881,1758,1860,2084,2206,2018,1797,1872,1989
682806,-45804,-15500,-15836,16932,0,0,-22,18,-14,-97,31,3944,10,-5,880,1758,1860,2084,2206,2018,1797,1872,1989
683807,-45812,-15512,-15771,16997,0,0,-21,17,-15,-89,50,3936,11,7,880,1758,1860,2084,2206,2018,1797,1872,1989
684808,-45804,-15512,-15706,17062,0,0,-19,17,-14,-90,73,3950,11,4,881,1758,1860,2084,2206,2018,1797,1872,1989
685809,-45800,-15512,-15641,17127,0,0,-18,16,-15,-78,67,3930,11,-7,881,1758,1860,2084,2206,2018,1797,1872,1989
686810,-45800,-15516,-15576,17192,0,0,-17,18,-16,-71,46,3954,11,1,881,1757,1858,2080,2203,2017,1797,1871,1989
687811,-45792,-15492,-15511,17257,0,0,-20,17,-15,-68,68,3923,5,1,881,1757,1858,2080,2203,2017,1797,1871,1989
688812,-45804,-15508,-15446,17322,0,0,-20,20,-15,-59,58,3946,0,0,881,1757,1858,2080,2203,2017,1797,1871,1989
689813,-45800,-15520,-15381,17387,0,0,-23,18,-17,-75,70,3965,-8,7,881,1757,1858,2080,2203,2017,1797,1871,1989
690814,-45796,-15516,-15316,17452,0,0,-25,19,-17,-81,71,3938,-5,7,881,1757,1858,2080,2203,2017,1797,1871,1989
691815,-45812,-15500,-15251,17517,0,0,-24,19,-16,-90,67,3927,-2,6,881,1758,1860,2082,2204,2018,1800,1872,1990
692816,-45812,-15492,-15186,17582,0,0,-21,18,-17,-98,67,3910,7,8,881,1758,1860,2082,2204,2018,1800,1872,1990
693817,-45812,-15512,-15121,17647,0,0,-19,19,-19,-87,65,3902,11,7,881,1758,1860,2082,2204,2018,1800,1872,1990
694818,-45812,-15504,-15056,17712,0,0,-19,18,-15,-87,73,3915,6,7,881,1758,1860,2082,2204,2018,1800,1872,1990
695819,-45800,-15508,-14991,17777,0,0,-21,20,-11,-71,62,3969,-5,2,881,1758,1860,2082,2204,2018,1800,1872,1990
696820,-45812,-15512,-14926,17842,0,0,-23,21,-15,-66,45,3973,-6,2,881,1758,1860,2082,2204,2018,1800,1872,1990
697821,-45796,-15500,-14861,17907,0,0,-22,19,-18,-80,57,3932,1,-2,881,1756,1858,2080,2203,2017,1797,1870,1989
698822,-45812,-15508,-14796,17972,0,0,-20,16,-17,-80,72,3916,10,-6,881,1756,1858,2080,2203,2017,1797,1870,1989
699823,-45812,-15504,-14731,18037,0,0,-20,19,-17,-54,63,3920,3,-6,880,1756,1858,2080,2203,2017,1797,1870,1989
700824,-45800,-15512,-14666,18102,0,0,-20,18,-17,-66,88,3925,2,-6,880,1756,1858,2080,2203,2017,1797,1870,1989
701825,-45808,-15512,-14601,18167,0,0,-21,17,-17,-77,86,3935,0,-3,881,1756,1858,2080,2203,2017,1797,1870,1989
702826,-45796,-15508,-14536,18232,0,0,-19,18,-17,-53,91,3926,-7,-5,881,1758,1860,2084,2205,2020,1800,1872,1989
703827,-45800,-15504,-14471,18297,0,0,-19,18,-16,-60,57,3933,-7,-4,881,1758,1860,2084,2205,2020,1800,1872,1989
704828,-45800,-15500,-14272,18496,0,0,-20,20,-16,-63,54,3939,-8,-2,881,1758,1860,2084,2205,2020,1800,1872,1989
705829,-45800,-15504,-14207,18561,0,0,-19,20,-16,-77,51,3912,2,-5,881,1758,1860,2084,2205,2020,1800,1872,1989
706830,-45804,-15516,-14142,18626,0,0,-18,17,-18,-100,57,3928,2,-4,881,1758,1860,2084,2205,2020,1800,1872,1989
707831,-45812,-15504,-14077,18691,0,0,-20,17,-20,-63,45,3930,4,5,881,1758,1860,2084,2205,2020,1800,1872,1989
708832,-45808,-15504,-14012,18756,0,0,-23,18,-19,-77,73,3921,10,7,881,1756,1858,2081,2203,2017,1797,1870,1989
709833,-45804,-15512,-13947,18821,0,0,-23,17,-17,-66,82,3933,10,8,881,1756,1858,2081,2203,2017,1797,1870,1989
710834,-45804,-15504,-13882,18886,0,0,-21,16,-17,-66,63,3961,10,3,881,1756,1858,2081,2203,2017,1797,1870,1989
711835,-45812,-15504,-13817,18951,0,0,-20,17,-17,-67,44,3957,9,-1,881,1756,1858,2081,2203,2017,1797,1870,1989
712836,-45804,-15504,-13752,19016,0,0,-22,15,-18,-91,55,3959,9,-5,881,1756,1858,2081,2203,2017,1797,1870,1989
713837,-45812,-15504,-13687,19081,0,0,-22,15,-17,-92,75,3940,-5,-6,881,1758,1860,2082,2205,2020,1800,1872,1989
714838,-45812,-15492,-13622,19146,0,0,-22,18,-17,-98,66,3954,-8,-7,881,1758,1860,2082,2205,2020,1800,1872,1989
715839,-45816,-15496,-13557,19211,0,0,-22,18,-17,-97,61,3962,-6,-6,881,1758,1860,2082,2205,2020,1800,1872,1989
716840,-45804,-15512,-13492,19276,0,0,-22,17,-18,-103,50,3951,-8,-5,880,1758,1860,2082,2205,2020,1800,1872,1989
717841,-45812,-15512,-13427,19341,0,0,-21,18,-17,-100,50,3960,-7,-7,880,1758,1860,2082,2205,2020,1800,1872,1989
718842,-45800,-15516,-13362,19406,0,0,-21,19,-15,-88,66,3932,-8,-6,881,1758,1860,2082,2205,2020,1800,1872,1989
719843,-45808,-15512,-13297,19471,0,0,-23,17,-16,-96,70,3959,-5,0,881,1757,1858,2080,2203,2017,1797,1871,1989
720844,-45808,-15508,-13232,19536,0,0,-21,17,-18,-81,57,3961,6,-2,881,1757,1858,2080,2203,2017,1797,1871,1989
721845,-45812,-15512,-13167,19601,0,0,-20,20,-15,-81,40,3926,9,-2,881,1757,1858,2080,2203,2017,1797,1871,1989
722846,-45812,-15504,-13102,19666,0,0,-22,20,-15,-92,84,3937,9,4,881,1757,1858,2080,2203,2017,1797,1871,1989
723847,-45812,-15504,-13037,19731,0,0,-21,20,-14,-69,84,3927,5,-1,881,1757,1858,2080,2203,2017,1797,1871,1989
724848,-45800,-15500,-12972,19796,0,0,-22,17,-16,-68,78,3939,2,-2,881,1758,1858,2082,2204,2020,1800,1872,1992
725849,-45808,-15520,-12907,19861,0,0,-20,18,-15,-96,76,3924,-8,5,881,1758,1858,2082,2204,2020,1800,1872,1992
726850,-45804,-15516,-12842,19926,0,0,-18,21,-14,-85,70,3947,0,2,881,1758,1858,2082,2204,2020,1800,1872,1992
727851,-45804,-15504,-12777,19991,0,0,-19,21,-15,-85,63,3973,6,3,881,1758,1858,2082,2204,2020,1800,1872,1992
728852,-45804,-15508,-12712,20056,0,0,-23,21,-15,-104,71,3979,11,8,881,1758,1858,2082,2204,2020,1800,1872,1992
729853,-45804,-15500,-12647,20121,0,0,-23,19,-15,-82,65,3979,1,8,881,1758,1858,2082,2204,2020,1800,1872,1992
730854,-45804,-15512,-12582,20186,0,0,-22,18,-15,-80,63,3956,-5,8,881,1756,1858,2080,2202,2017,1797,1871,1988
731855,-45804,-15512,-12517,20251,0,0,-20,18,-12,-91,72,3953,-6,3,881,1756,1858,2080,2202,2017,1797,1871,1988
732856,-45812,-15504,-12452,20316,0,0,-23,19,-15,-101,66,3958,3,3,881,1756,1858,2080,2202,2017,1797,1871,1988
733857,-45812,-15508,-12387,20381,0,0,-23,21,-15,-103,51,3943,10,4,880,1756,1858,2080,2202,2017,1797,1871,1988
734858,-45800,-15492,-12322,20446,0,0,-22,21,-16,-68,67,3934,6,3,880,1756,1858,2080,2202,2017,1797,1871,1988
735859,-45800,-15500,-12257,20511,0,0,-23,20,-17,-78,50,3934,-5,4,881,1755,1858,2081,2204,2019,1800,1872,1992
736860,-45804,-15512,-12192,20576,0,0,-23,19,-16,-76,51,3932,-7,3,881,1755,1858,2081,2204,2019,1800,1872,1992
737861,-45800,-15504,-12127,20641,0,0,-21,17,-15,-62,70,3918,-5,-6,881,1755,1858,2081,2204,2019,1800,1872,1992
738862,-45804,-15512,-12062,20706,0,0,-20,18,-16,-50,65,3916,3,-7,881,1755,1858,2081,2204,2019,1800,1872,1992
739863,-45800,-15504,-11997,20771,0,0,-21,20,-16,-64,59,3940,5,5,881,1755,1858,2081,2204,2019,1800,1872,1992
740864,-45804,-15500,-11932,20836,0,0,-22,21,-17,-80,48,3967,11,8,881,1755,1858,2081,2204,2019,1800,1872,1992
741865,-45804,-15500,-11867,20901,0,0,-20,18,-16,-94,53,3974,-4,4,881,1756,1859,2081,2204,2016,1797,1870,1989
742866,-45812,-15504,-11802,20966,0,0,-21,18,-17,-112,75,3964,-7,8,881,1756,1859,2081,2204,2016,1797,1870,1989
743867,-45808,-15504,-11737,21031,0,0,-22,17,-18,-93,69,3943,-5,6,881,1756,1859,2081,2204,2016,1797,1870,1989
744868,-45804,-15500,-11672,21096,0,0,-21,18,-18,-89,48,3952,4,-1,881,1756,1859,2081,2204,2016,1797,1870,1989
745871,-45800,-15520,-11607,21161,0,0,-21,18,-18,-87,54,3954,7,2,881,1756,1859,2081,2204,2016,1797,1870,1989
746870,-45808,-15508,-11542,21226,0,0,-21,18,-17,-73,48,3973,11,6,881,1757,1857,2078,2203,2015,1798,1871,1991
747871,-45808,-15500,-11477,21291,0,0,-20,15,-16,-78,53,3959,6,2,881,1757,1857,2078,2203,2015,1798,1871,1991
748872,-45804,-15504,-11412,21356,0,0,-20,15,-15,-95,67,3959,1,-4,881,1757,1857,2078,2203,2015,1798,1871,1991
749873,-45800,-15508,-11347,21421,0,0,-20,21,-17,-112,65,3953,-8,-5,881,1757,1857,2078,2203,2015,1798,1871,1991
750874,-45808,-15512,-11282,21486,0,0,-20,23,-17,-79,64,3962,5,-5,880,1757,1857,2078,2203,2015,1798,1871,1991
751875,-45804,-15512,-11217,21551,0,0,-22,21,-16,-106,23,3951,9,-6,881,1757,1857,2078,2203,2015,1798,1871,1991
752876,-45800,-15508,-11152,21616,0,0,-23,20,-17,-124,48,3943,10,1,881,1756,1860,2081,2204,2018,1797,1870,1989
753877,-45800,-15508,-11087,21681,0,0,-23,18,-18,-105,48,3954,2,5,881,1756,1860,2081,2204,2018,1797,1870,1989
754878,-45812,-15512,-11022,21746,0,0,-22,16,-17,-76,57,3956,-7,7,881,1756,1860,2081,2204,2018,1797,1870,1989
755879,-45800,-15504,-10957,21811,0,0,-21,17,-18,-81,57,3934,-5,2,881,1756,1860,2081,2204,2018,1797,1870,1989
756880,-45804,-15508,-10892,21876,0,0,-21,18,-16,-108,47,3955,10,-4,881,1756,1860,2081,2204,2018,1797,1870,1989
757881,-45816,-15496,-10827,21941,0,0,-21,18,-18,-103,64,3924,6,-6,881,1753,1855,2079,2206,2020,1799,1871,1992
758882,-45820,-15512,-10762,22006,0,0,-22,18,-17,-90,79,3910,-4,-6,881,1753,1855,2079,2206,2020,1799,1871,1992
759883,-45808,-15512,-10697,22071,0,0,-21,16,-16,-54,72,3908,-6,-5,881,1753,1855,2079,2206,2020,1799,1871,1992
760884,-45804,-15524,-10632,22136,0,0,-20,17,-14,-94,39,3953,3,-3,881,1753,1855,2079,2206,2020,1799,1871,1992
761885,-45808,-15520,-10567,22201,0,0,-18,19,-15,-88,47,3948,11,6,881,1753,1855,2079,2206,2020,1799,1871,1992
762886,-45808,-15508,-10502,22266,0,0,-21,19,-17,-68,46,3936,3,5,881,1753,1855,2079,2206,2020,1799,1871,1992
763887,-45812,-15512,-10437,22331,0,0,-23,20,-19,-99,66,3914,3,-3,881,1756,1858,2080,2203,2018,1797,1870,1988
764888,-45804,-15512,-10372,22396,0,0,-20,21,-17,-117,52,3956,-7,-6,881,1756,1858,2080,2203,2018,1797,1870,1988
765889,-45804,-15524,-10307,22461,0,0,-19,19,-15,-105,79,3942,-5,-4,881,1756,1858,2080,2203,2018,1797,1870,1988
766890,-45808,-15508,-10242,22526,0,0,-20,18,-15,-89,53,3901,0,-2,881,1756,1858,2080,2203,2018,1797,1870,1988
767891,-45812,-15504,-10177,22591,0,0,-21,17,-17,-70,63,3956,11,-1,880,1756,1858,2080,2203,2018,1797,1870,1988
768892,-45812,-15516,-10112,22656,0,0,-20,19,-18,-56,41,4006,2,-6,880,1755,1860,2082,2206,2020,1800,1872,1992
769893,-45808,-15504,-10047,22721,0,0,-21,21,-14,-97,40,3953,-4,-5,881,1755,1860,2082,2206,2020,1800,1872,1992
770894,-45816,-15504,-9982,22786,0,0,-20,21,-14,-92,61,3962,-3,5,881,1755,1860,2082,2206,2020,1800,1872,1992
771895,-45796,-15512,-9917,22851,0,0,-22,19,-17,-81,83,3945,11,8,881,1755,1860,2082,2206,2020,1800,1872,1992
772896,-45812,-15504,-9852,22916,0,0,-21,18,-17,-85,72,3917,10,7,881,1755,1860,2082,2206,2020,1800,1872,1992
773897,-45808,-15520,-9787,22981,0,0,-20,17,-16,-94,84,3915,1,0,881,1755,1860,2082,2206,2020,1800,1872,1992
774898,-45804,-15512,-9722,23046,0,0,-18,17,-14,-98,64,3940,-5,-5,881,1756,1858,2080,2203,2018,1797,1871,1989
775899,-45800,-15516,-9657,23111,0,0,-20,18,-12,-74,42,3946,-8,-7,881,1756,1858,2080,2203,2018,1797,1871,1989
776900,-45808,-15504,-9592,23176,0,0,-23,19,-14,-79,60,3932,-5,-3,881,1756,1858,2080,2203,2018,1797,1871,1989
777901,-45816,-15508,-9527,23241,0,0,-24,20,-14,-82,82,3935,3,5,881,1756,1858,2080,2203,2018,1797,1871,1989
778902,-45800,-15512,-9462,23306,0,0,-19,17,-15,-99,64,3951,5,8,881,1756,1858,2080,2203,2018,1797,1871,1989
779903,-45820,-15516,-9397,23371,0,0,-18,18,-16,-83,72,3941,9,5,881,1758,1860,2082,2206,2018,1800,1872,1989
780904,-45800,-15496,-9332,23436,0,0,-18,18,-15,-68,94,3971,11,-5,881,1758,1860,2082,2206,2018,1800,1872,1989
781905,-45804,-15500,-9267,23501,0,0,-19,17,-13,-90,82,3957,11,-6,881,1758,1860,2082,2206,2018,1800,1872,1989
782906,-45800,-15512,-9202,23566,0,0,-21,19,-14,-97,72,3940,10,-5,881,1758,1860,2082,2206,2018,1800,1872,1989
783907,-45796,-15504,-9137,23631,0,0,-21,16,-16,-91,59,3922,6,-3,881,1758,1860,2082,2206,2018,1800,1872,1989
784908,-45804,-15508,-9072,23696,0,0,-20,17,-17,-78,47,3935,3,-5,880,1758,1860,2082,2206,2018,1800,1872,1989
785909,-45812,-15500,-9007,23761,0,0,-20,18,-15,-89,71,3947,-7,-4,880,1756,1858,2081,2203,2018,1797,1871,1989
786910,-45804,-15504,-8942,23826,0,0,-19,18,-15,-100,62,3930,-8,-4,881,1756,1858,2081,2203,2018,1797,1871,1989
787911,-45800,-15504,-8877,23891,0,0,-19,16,-15,-102,73,3935,-8,1,881,1756,1858,2081,2203,2018,1797,1871,1989
788912,-45808,-15516,-8812,23956,0,0,-21,16,-16,-100,60,3945,-1,6,881,1756,1858,2081,2203,2018,1797,1871,1989
789913,-45812,-15504,-8747,24021,0,0,-20,17,-18,-93,46,3937,11,8,881,1756,1858,2081,2203,2018,1797,1871,1989
790914,-45816,-15516,-8682,24086,0,0,-19,18,-16,-83,59,3939,2,7,881,1758,1860,2080,2204,2018,1798,1872,1990
791915,-45804,-15504,-8617,24151,0,0,-20,18,-15,-84,66,3949,-6,8,881,1758,1860,2080,2204,2018,1798,1872,1990
792916,-45796,-15508,-8552,24216,0,0,-18,18,-14,-72,85,3959,-5,6,881,1758,1860,2080,2204,2018,1798,1872,1990
793917,-45800,-15508,-8487,24281,0,0,-20,16,-18,-85,52,3923,-5,5,881,1758,1860,2080,2204,2018,1798,1872,1990
794918,-45796,-15496,-8422,24346,0,0,-20,17,-19,-74,49,3961,11,8,881,1758,1860,2080,2204,2018,1798,1872,1990
795923,-45812,-15504,-8357,24411,0,0,-20,17,-17,-66,57,3952,-4,7,881,1758,1860,2080,2204,2018,1798,1872,1990
796920,-45808,-15508,-8292,24476,0,0,-20,19,-16,-83,80,3941,-8,5,881,1756,1858,2080,2203,2017,1798,1870,1990
797921,-45812,-15516,-8227,24541,0,0,-20,21,-16,-72,60,3920,-4,-5,881,1756,1858,2080,2203,2017,1798,1870,1990
798922,-45808,-15512,-8162,24606,0,0,-20,21,-15,-77,54,3946,9,-6,881,1756,1858,2080,2203,2017,1798,1870,1990
799923,-45808,-15512,-8097,24671,0,0,-19,20,-17,-75,68,3971,11,-1,881,1756,1858,2080,2203,2017,1798,1870,1990
800924,-45808,-15508,-8032,24736,0,0,-21,17,-16,-80,60,3937,7,8,881,1756,1858,2080,2203,2017,1798,1870,1990
801925,-45816,-15508,-7967,24801,0,0,-22,14,-15,-79,76,3924,-7,7,880,1756,1858,2080,2204,2017,1797,1871,1989
802926,-45804,-15500,-7902,24866,0,0,-23,16,-16,-59,69,3957,-7,5,881,1756,1858,2080,2204,2017,1797,1871,1989
803927,-45800,-15504,-7837,24931,0,0,-23,19,-17,-85,68,3951,-6,8,881,1756,1858,2080,2204,2017,1797,1871,1989
804928,-45800,-15512,-7772,24996,0,0,-22,19,-16,-94,50,3956,6,8,881,1756,1858,2080,2204,2017,1797,1871,1989
805929,-45812,-15508,-7707,25061,0,0,-22,20,-17,-81,49,3942,11,7,881,1756,1858,2080,2204,2017,1797,1871,1989
806930,-45804,-15512,-7642,25126,0,0,-24,18,-17,-84,45,3947,7,0,881,1755,1858,2080,2204,2017,1797,1871,1989
807931,-45804,-15512,-7577,25191,0,0,-25,20,-17,-87,77,3908,-5,-2,881,1755,1858,2080,2203,2017,1797,1871,1990
808932,-45804,-15512,-7512,25256,0,0,-26,19,-17,-90,74,3914,-8,-5,881,1755,1858,2080,2203,2017,1797,1871,1990
809933,-45812,-15496,-7447,25321,0,0,-21,20,-17,-72,69,3918,1,-6,881,1755,1858,2080,2203,2017,1797,1871,1990
810934,-45808,-15508,-7382,25386,0,0,-19,18,-16,-98,54,3948,9,-3,881,1755,1858,2080,2203,2017,1797,1871,1990
811935,-45804,-15504,-7317,25451,0,0,-23,19,-17,-74,65,3933,-6,-2,881,1755,1858,2080,2203,2017,1797,1871,1990
812936,-45816,-15500,-7252,25516,0,0,-24,21,-14,-95,50,3932,-6,7,881,1756,1859,2081,2203,2017,1797,1871,1990
813937,-45816,-15512,-7187,25581,0,0,-21,19,-13,-94,62,3944,5,7,881,1756,1859,2081,2203,2017,1797,1871,1990
814938,-45804,-15516,-7122,25646,0,0,-22,16,-16,-92,68,3967,6,8,881,1756,1859,2081,2203,2017,1797,1871,1990
815939,-45804,-15512,-7057,25711,0,0,-23,15,-19,-83,46,3988,11,2,881,1756,1859,2081,2203,2017,1797,1871,1990
816940,-45812,-15512,-6992,25776,0,0,-21,17,-16,-107,40,3950,6,8,881,1756,1859,2081,2203,2017,1797,1871,1990
817941,-45804,-15508,-6927,25841,0,0,-18,19,-16,-78,49,3937,2,6,881,1757,1859,2080,2204,2018,1795,1869,1987
818942,-45804,-15504,-6862,25906,0,0,-18,16,-15,-73,47,3976,-8,-2,881,1757,1859,2080,2204,2018,1795,1869,1987
819943,-45800,-15512,-6797,25971,0,0,-22,17,-17,-65,49,3944,-3,-2,880,1757,1859,2080,2204,2018,1795,1869,1987
820944,-45812,-15496,-6732,26036,0,0,-24,15,-16,-79,70,3901,-1,-7,881,1757,1859,2080,2204,2018,1795,1869,1987
821945,-45804,-15508,-6667,26101,0,0,-23,15,-14,-87,43,3919,10,4,881,1757,1859,2080,2204,2018,1795,1869,1987
822946,-45808,-15500,-6602,26166,0,0,-20,17,-15,-95,59,3954,6,7,881,1757,1859,2080,2204,2018,1795,1869,1987
823947,-45808,-15512,-6537,26231,0,0,-22,18,-19,-68,70,3960,2,8,881,1756,1858,2081,2204,2017,1797,1870,1988
824948,-45812,-15504,-6472,26296,0,0,-21,16,-18,-85,76,3944,-7,5,881,1756,1858,2081,2204,2017,1797,1870,1988
825949,-45820,-15520,-6407,26361,0,0,-21,17,-15,-90,60,3942,-7,7,881,1756,1858,2081,2204,2017,1797,1870,1988
826950,-45808,-15508,-6342,26426,0,0,-20,19,-15,-87,41,3923,-7,7,881,1756,1858,2081,2204,2017,1797,1870,1988
827951,-45792,-15500,-6277,26491,0,0,-18,18,-17,-96,43,3950,7,3,881,1756,1858,2081,2204,2017,1797,1870,1988
828952,-45808,-15508,-6212,26556,0,0,-20,16,-15,-111,43,3924,11,-3,881,1755,1859,2083,2206,2020,1800,1872,1992
829953,-45796,-15500,-6147,26621,0,0,-21,16,-12,-114,38,3933,10,-6,881,1755,1859,2083,2206,2020,1800,1872,1992
830954,-45792,-15512,-6082,26686,0,0,-20,18,-12,-78,60,3990,3,-6,881,1755,1859,2083,2206,2020,1800,1872,1992
831955,-45816,-15516,-6017,26751,0,0,-18,18,-16,-66,53,3974,-6,-1,881,1755,1859,2083,2206,2020,1800,1872,1992
832956,-45816,-15500,-5952,26816,0,0,-19,20,-18,-85,38,3945,-8,5,881,1755,1859,2083,2206,2020,1800,1872,1992
833957,-45804,-15508,-5887,26881,0,0,-20,20,-18,-109,55,3901,0,-2,881,1755,1859,2083,2206,2020,1800,1872,1992
834958,-45804,-15508,-5822,26946,0,0,-20,19,-18,-106,69,3912,9,-6,881,1756,1858,2080,2203,2017,1797,1871,1989
835959,-45800,-15508,-5757,27011,0,0,-20,19,-16,-77,86,3935,11,-7,880,1756,1858,2080,2203,2017,1797,1871,1989
836960,-45800,-15512,-5692,27076,0,0,-21,18,-15,-101,91,3956,10,-4,880,1756,1858,2080,2203,2017,1797,1871,1989
837961,-45800,-15512,-5627,27141,0,0,-21,21,-14,-56,81,3931,11,0,881,1756,1858,2080,2203,2017,1797,1871,1989
838962,-45800,-15512,-5562,27206,0,0,-23,19,-16,-66,74,3938,11,4,881,1756,1858,2080,2203,2017,1797,1871,1989
839963,-45808,-15516,-5497,27271,0,0,-20,18,-17,-86,62,3947,4,6,881,1757,1858,2080,2204,2017,1797,1871,1989
840964,-45804,-15504,-5432,27336,0,0,-19,19,-17,-99,48,3979,-5,1,881,1757,1858,2080,2204,2017,1797,1871,1989
841965,-45808,-15508,-5367,27401,0,0,-21,21,-15,-97,41,3940,-8,-2,881,1757,1858,2080,2204,2017,1797,1871,1989
842966,-45808,-15508,-5302,27466,0,0,-22,21,-14,-119,67,3956,-7,-6,881,1757,1858,2080,2204,2017,1797,1871,1989
843967,-45812,-15508,-5237,27531,0,0,-21,21,-16,-129,42,3980,8,-4,881,1757,1858,2080,2204,2017,1797,1871,1989
844968,-45812,-15516,-5172,27596,0,0,-18,19,-16,-97,58,3931,11,0,881,1757,1858,2080,2204,2017,1797,1871,1989
845969,-45812,-15516,-5107,27661,0,0,-17,19,-15,-94,90,3906,6,4,881,1756,1858,2081,2204,2017,1797,1871,1990
846970,-45796,-15504,-5042,27726,0,0,-21,20,-15,-87,71,3924,-8,4,881,1756,1858,2081,2204,2017,1797,1871,1990
847971,-45800,-15496,-4977,27791,0,0,-21,21,-14,-110,55,3950,-3,8,881,1756,1858,2081,2204,2017,1797,1871,1990
848972,-45816,-15512,-4912,27856,0,0,-21,19,-15,-93,57,3941,11,2,881,1756,1858,2081,2204,2017,1797,1871,1990
849973,-45808,-15520,-4847,27921,0,0,-21,19,-16,-96,86,3945,4,-2,881,1756,1858,2081,2204,2017,1797,1871,1990
850974,-45792,-15504,-4782,27986,0,0,-21,19,-17,-91,80,3955,-4,-5,881,1757,1859,2081,2205,2018,1799,1871,1989
851975,-45808,-15512,-4717,28051,0,0,-21,16,-17,-92,84,3968,-8,-1,881,1757,1859,2081,2205,2018,1799,1871,1989
852976,-45812,-15508,-4652,28116,0,0,-20,18,-17,-86,48,3952,6,-6,880,1757,1859,2081,2205,2018,1799,1871,1989
853977,-45812,-15516,-4587,28181,0,0,-20,20,-14,-77,86,3947,11,-6,880,1757,1859,2081,2205,2018,1799,1871,1989
854978,-45812,-15504,-4522,28246,0,0,-20,21,-15,-85,73,3949,9,2,881,1757,1859,2081,2205,2018,1799,1871,1989
855979,-45812,-15512,-4457,28311,0,0,-19,18,-16,-100,61,3956,-2,8,881,1757,1859,2081,2205,2018,1799,1871,1989
856980,-45804,-15508,-4392,28376,0,0,-23,17,-15,-77,64,3958,-3,-1,881,1757,1859,2079,2203,2019,1799,1871,1992
857981,-45800,-15512,-4327,28441,0,0,-25,16,-14,-75,66,3940,-8,1,881,1757,1859,2079,2203,2019,1799,1871,1992
858982,-45812,-15496,-4262,28506,0,0,-24,17,-16,-87,65,3901,-7,7,881,1757,1859,2079,2203,2019,1799,1871,1992
859983,-45804,-15500,-4197,28571,0,0,-23,17,-16,-79,73,3946,0,6,881,1757,1859,2079,2203,2019,1799,1871,1992
860984,-45804,-15508,-4132,28636,0,0,-22,18,-15,-91,80,3943,11,7,881,1757,1859,2079,2203,2019,1799,1871,1992
861985,-45808,-15508,-4067,28701,0,0,-21,18,-14,-95,54,3931,7,7,881,1757,1859,2080,2204,2017,1797,1871,1990
862986,-45812,-15512,-4002,28766,0,0,-20,18,-16,-84,57,3969,7,3,881,1757,1859,2080,2204,2017,1797,1871,1990
863987,-45800,-15500,-3937,28831,0,0,-19,16,-17,-83,53,3926,-6,-6,881,1757,1859,2080,2204,2017,1797,1871,1990
864988,-45804,-15520,-3872,28896,0,0,-19,18,-17,-88,60,3927,-4,6,881,1757,1859,2080,2204,2017,1797,1871,1990
865989,-45812,-15508,-3807,28961,0,0,-19,19,-15,-76,58,3964,9,7,881,1757,1859,2080,2204,2017,1797,1871,1990
866990,-45812,-15512,-3742,29026,0,0,-21,19,-12,-92,60,3962,7,-1,881,1757,1859,2080,2204,2017,1797,1871,1990
867991,-45812,-15516,-3677,29091,0,0,-23,19,-15,-75,37,3964,-7,-6,881,1758,1860,2084,2206,2018,1797,1872,1989
868992,-45820,-15512,-3612,29156,0,0,-23,18,-17,-68,56,3938,-8,-7,880,1758,1860,2084,2206,2018,1797,1872,1989
869993,-45808,-15504,-3547,29221,0,0,-20,18,-16,-83,85,3913,3,-4,880,1758,1860,2084,2206,2018,1797,1872,1989
870994,-45804,-15516,-3482,29286,0,0,-21,20,-17,-108,91,3924,10,-5,881,1758,1860,2084,2206,2018,1797,1872,1989
871995,-45808,-15504,-3417,29351,0,0,-21,22,-16,-81,86,3959,9,-5,881,1758,1860,2084,2206,2018,1797,1872,1989
872996,-45800,-15504,-3352,29416,0,0,-20,19,-13,-70,66,3957,-8,4,881,1755,1858,2080,2205,2017,1798,1870,1989
873997,-45800,-15504,-3287,29481,0,0,-20,19,-15,-92,59,3933,-3,6,881,1755,1858,2080,2205,2017,1798,1870,1989
874998,-45808,-15508,-3222,29546,0,0,-23,19,-18,-85,68,3923,2,7,881,1755,1858,2080,2205,2017,1798,1870,1989
875999,-45824,-15500,-3157,29611,0,0,-24,18,-17,-83,73,3923,10,6,881,1755,1858,2080,2205,2017,1798,1870,1989
877000,-45800,-15504,-3092,29676,0,0,-23,18,-14,-86,50,3948,-4,2,881,1755,1858,2080,2205,2017,1798,1870,1989
878001,-45804,-15504,-3027,29741,0,0,-20,19,-15,-98,59,3946,-8,0,881,1755,1858,2080,2205,2017,1798,1870,1989
879002,-45804,-15500,-2962,29806,0,0,-20,18,-17,-93,78,3951,-5,-6,881,1756,1858,2080,2204,2017,1797,1871,1989
880003,-45808,-15504,-2897,29871,0,0,-21,16,-17,-56,48,3948,6,-7,881,1756,1858,2080,2204,2017,1797,1871,1989
881004,-45820,-15504,-2832,29936,0,0,-20,18,-19,-86,66,3924,11,-6,880,1756,1858,2080,2204,2017,1797,1871,1989
882005,-45808,-15508,-2767,30001,0,0,-23,19,-19,-83,77,3916,3,-3,881,1756,1858,2080,2204,2017,1797,1871,1989
883006,-45796,-15504,-2702,30066,0,0,-23,18,-15,-104,89,3945,-8,-3,881,1756,1858,2080,2204,2017,1797,1871,1989
884007,-45808,-15500,-2637,30131,0,0,-20,17,-15,-99,85,3925,-7,-3,881,1755,1858,2080,2204,2017,1798,1870,1990
885008,-45808,-15516,-2572,30196,0,0,-20,14,-19,-78,68,3934,-1,1,881,1755,1858,2080,2204,2017,1798,1870,1990
886009,-45812,-15504,-2507,30261,0,0,-21,14,-16,-74,59,3968,6,1,880,1755,1858,2080,2204,2017,1798,1870,1990
887010,-45812,-15508,-2442,30326,0,0,-21,17,-14,-76,52,3932,9,2,879,1755,1858,2080,2204,2017,1798,1870,1990
888011,-45800,-15508,-2377,30391,0,0,-23,19,-17,-83,83,3920,11,2,881,1755,1858,2080,2204,2017,1798,1870,1990
889012,-45808,-15508,-2312,30456,0,0,-25,18,-16,-90,75,3935,10,4,881,1755,1858,2080,2204,2017,1798,1870,1990
890013,-45808,-15504,-2247,30521,0,0,-21,20,-16,-88,65,3954,11,4,881,1756,1858,2081,2205,2017,1797,1870,1989
891014,-45804,-15508,-2182,30586,0,0,-20,19,-16,-61,74,3934,9,8,881,1756,1858,2081,2205,2017,1797,1870,1989
892015,-45808,-15500,-2117,30651,0,0,-20,16,-15,-82,79,3927,2,7,881,1756,1858,2081,2205,2017,1797,1870,1989
893016,-45804,-15508,-2052,30716,0,0,-19,16,-16,-104,66,3921,-6,6,881,1756,1858,2081,2205,2017,1797,1870,1989
894017,-45812,-15500,-1987,30781,0,0,-18,17,-14,-80,66,3932,-7,-4,881,1756,1858,2081,2205,2017,1797,1870,1989
895018,-45808,-15516,-1922,30846,0,0,-19,17,-15,-74,78,3975,0,-7,881,1757,1859,2081,2205,2018,1798,1871,1989
896019,-45812,-15512,-1857,30911,0,0,-21,17,-17,-57,89,3960,-2,-7,881,1757,1859,2081,2205,2018,1798,1871,1989
897020,-45800,-15512,-1792,30976,0,0,-21,18,-18,-97,82,3952,4,-5,881,1757,1859,2081,2205,2018,1798,1871,1989
898021,-45804,-15516,-1727,31041,0,0,-21,20,-17,-94,62,3983,11,-3,881,1757,1859,2081,2205,2018,1798,1871,1989
899022,-45808,-15508,-1662,31106,0,0,-20,18,-15,-88,49,3962,11,0,881,1757,1859,2081,2205,2018,1798,1871,1989
900023,-45808,-15504,-1597,31171,0,0,-21,16,-16,-88,79,3934,5,5,881,1757,1859,2081,2205,2018,1798,1871,1989
901024,-45808,-15496,-1532,31236,0,0,-21,16,-17,-65,88,3941,2,8,881,1757,1858,2081,2205,2017,1798,1871,1990
902025,-45816,-15512,-1467,31301,0,0,-24,18,-16,-86,63,3900,5,-2,881,1757,1858,2081,2205,2017,1798,1871,1990
903026,-45812,-15508,-1402,31366,0,0,-25,18,-13,-96,54,3930,7,2,880,1757,1858,2081,2205,2017,1798,1871,1990
904027,-45816,-15508,-1337,31431,0,0,-21,19,-15,-72,64,3936,-3,1,881,1757,1858,2081,2205,2017,1798,1871,1990
905028,-45812,-15496,-1272,31496,0,0,-20,19,-18,-101,36,3929,-5,7,881,1757,1858,2081,2205,2017,1798,1871,1990
906029,-45816,-15508,-1207,31561,0,0,-19,16,-16,-111,45,3922,-7,-3,881,1756,1858,2081,2205,2017,1795,1867,1989
907030,-45812,-15504,-1142,31626,0,0,-21,16,-14,-102,53,3923,-8,-6,881,1756,1858,2081,2205,2017,1795,1867,1989
908031,-45816,-15504,-1077,31691,0,0,-25,18,-13,-66,35,3938,-8,-7,881,1756,1858,2081,2205,2017,1795,1867,1989
909032,-45812,-15512,-1012,31756,0,0,-21,22,-16,-90,38,3968,-8,-1,881,1756,1858,2081,2205,2017,1795,1867,1989
910033,-45800,-15516,-947,31821,0,0,-21,21,-16,-88,46,3933,-7,4,881,1756,1858,2081,2205,2017,1795,1867,1989
911034,-45812,-15496,-882,31886,0,0,-21,20,-14,-83,75,3909,-6,7,881,1756,1858,2081,2205,2017,1795,1867,1989
912035,-45808,-15504,-817,31951,0,0,-21,21,-14,-78,56,3907,-2,4,881,1756,1859,2082,2206,2018,1797,1870,1989
913036,-45800,-15512,-752,32016,0,0,-20,20,-14,-53,61,3952,3,-1,881,1756,1859,2082,2206,2018,1797,1870,1989
914037,-45812,-15516,-687,32081,0,0,-22,21,-14,-65,71,3949,0,-6,881,1756,1859,2082,2206,2018,1797,1870,1989
915038,-45812,-15512,-622,32146,0,0,-23,17,-13,-81,67,3977,8,2,881,1756,1859,2082,2206,2018,1797,1870,1989
916039,-45808,-15508,-557,32211,0,0,-22,17,-14,-80,42,3911,11,8,881,1756,1859,2082,2206,2018,1797,1870,1989
917040,-45808,-15504,-492,32276,0,0,-21,20,-18,-106,67,3947,10,3,881,1757,1860,2082,2206,2020,1797,1872,1989
918041,-45804,-15516,-427,32341,0,0,-21,22,-17,-93,62,3941,-1,-5,881,1757,1860,2082,2206,2020,1797,1872,1989
919042,-45804,-15504,-362,32406,0,0,-21,20,-13,-76,45,3934,-8,4,881,1757,1860,2082,2206,2020,1797,1872,1989
920043,-45804,-15504,-297,32471,0,0,-21,20,-15,-75,44,3949,-8,6,880,1757,1860,2082,2206,2020,1797,1872,1989
921044,-45812,-15508,-232,32536,0,0,-21,19,-17,-75,71,3953,-1,-3,880,1757,1860,2082,2206,2020,1797,1872,1989
922045,-45808,-15512,-167,32601,0,0,-20,18,-15,-85,63,3942,11,-5,880,1757,1860,2082,2206,2020,1797,1872,1989
923046,-45800,-15508,-102,32666,0,0,-20,16,-13,-97,72,3951,7,-6,881,1755,1857,2080,2204,2016,1797,1870,1989
924047,-45812,-15500,-37,32731,0,0,-20,15,-13,-71,64,3930,10,5,881,1755,1857,2080,2204,2016,1797,1870,1989
925048,-45808,-15512,28,32796,0,0,-21,17,-17,-75,55,3945,11,4,881,1755,1857,2080,2204,2016,1797,1870,1989
926049,-45804,-15516,93,32861,0,0,-23,16,-18,-102,61,3947,9,-6,881,1755,1857,2080,2204,2016,1797,1870,1989
927050,-45804,-15504,158,32926,0,0,-22,17,-15,-111,75,3909,10,6,881,1755,1857,2080,2204,2016,1797,1870,1989
928051,-45788,-15500,223,32991,0,0,-22,18,-17,-111,73,3892,10,6,881,1756,1859,2081,2205,2017,1798,1871,1990
929052,-45812,-15504,288,33056,0,0,-23,17,-17,-101,62,3923,10,-4,881,1756,1859,2081,2205,2017,1798,1871,1990
930053,-45812,-15512,353,33121,0,0,-23,17,-17,-67,25,3958,6,-4,881,1756,1859,2081,2205,2017,1798,1871,1990
931054,-45792,-15504,418,33186,0,0,-20,18,-16,-70,49,3952,0,3,881,1756,1859,2081,2205,2017,1798,1871,1990
932055,-45812,-15512,483,33251,0,0,-20,17,-15,-74,65,3940,-3,7,881,1756,1859,2081,2205,2017,1798,1871,1990
933056,-45816,-15504,548,33316,0,0,-20,19,-15,-110,56,3934,-7,-1,880,1756,1859,2081,2205,2017,1798,1871,1990
934057,-45800,-15516,613,33381,0,0,-23,18,-15,-89,59,3914,-8,-7,880,1756,1858,2080,2205,2015,1795,1871,1991
935058,-45804,-15508,678,33446,0,0,-22,15,-16,-71,81,3910,-8,-4,881,1756,1858,2080,2205,2015,1795,1871,1991
936059,-45792,-15500,743,33511,0,0,-20,16,-16,-93,86,3935,-6,7,880,1756,1858,2080,2205,2015,1795,1871,1991
937060,-45804,-15500,808,33576,0,0,-21,16,-15,-99,60,3919,2,3,881,1756,1858,2080,2205,2015,1795,1871,1991
938061,-45796,-15504,873,33641,0,0,-21,16,-14,-105,51,3924,3,7,880,1756,1858,2080,2205,2015,1795,1871,1991
939062,-45808,-15512,938,33706,0,0,-18,16,-14,-74,63,3937,11,7,881,1757,1858,2080,2204,2016,1797,1869,1988
940063,-45808,-15520,1003,33771,0,0,-17,16,-16,-69,75,3904,10,5,880,1757,1858,2080,2204,2016,1797,1869,1988
941064,-45812,-15508,1068,33836,0,0,-18,16,-17,-79,65,3913,10,-1,881,1757,1858,2080,2204,2016,1797,1869,1988
942065,-45800,-15508,1133,33901,0,0,-19,19,-18,-79,48,3987,-4,-7,880,1757,1858,2080,2204,2016,1797,1869,1988
943066,-45812,-15524,1198,33966,0,0,-21,19,-18,-66,55,3977,-7,-6,880,1757,1858,2080,2204,2016,1797,1869,1988
944067,-45808,-15508,1263,34031,0,0,-20,17,-17,-93,70,3948,-8,-3,881,1757,1858,2080,2204,2016,1797,1869,1988
945068,-45804,-15508,1328,34096,0,0,-21,17,-17,-105,74,3930,-4,6,880,1758,1858,2080,2205,2017,1797,1870,1989
946069,-45796,-15500,1393,34161,0,0,-21,18,-18,-94,62,3960,8,7,880,1758,1858,2080,2205,2017,1797,1870,1989
947070,-45800,-15512,1458,34226,0,0,-21,18,-18,-61,77,3969,8,0,881,1758,1858,2080,2205,2017,1797,1870,1989
948071,-45808,-15508,1523,34291,0,0,-21,17,-17,-76,74,3957,9,-5,881,1758,1858,2080,2205,2017,1797,1870,1989
949072,-45808,-15512,1588,34356,0,0,-21,16,-16,-89,63,3958,-4,2,881,1758,1858,2080,2205,2017,1797,1870,1989
950073,-45812,-15496,1653,34421,0,0,-20,16,-15,-91,66,3951,-7,7,880,1755,1857,2080,2205,2017,1797,1870,1990
951074,-45808,-15512,1718,34486,0,0,-19,19,-16,-103,73,3960,-6,4,880,1755,1857,2080,2205,2017,1797,1870,1990
952075,-45804,-15508,1783,34551,0,0,-21,20,-19,-82,74,3977,6,2,881,1755,1857,2080,2205,2017,1797,1870,1990
953076,-45800,-15496,1848,34616,0,0,-21,20,-18,-98,84,3952,11,-2,881,1755,1857,2080,2205,2017,1797,1870,1990
954077,-45804,-15504,1913,34681,0,0,-20,19,-17,-111,69,3929,-6,-6,880,1755,1857,2080,2205,2017,1797,1870,1990
955078,-45792,-15508,2112,34880,0,0,-20,18,-17,-91,51,3937,-5,-7,880,1755,1857,2080,2205,2017,1797,1870,1990
956079,-45800,-15500,2177,34945,0,0,-20,18,-17,-106,43,3964,-1,-6,880,1756,1858,2080,2205,2018,1797,1870,1990
957080,-45820,-15504,2242,35010,0,0,-22,18,-16,-92,56,3946,9,-5,881,1756,1858,2080,2205,2018,1797,1870,1990
958081,-45800,-15500,2307,35075,0,0,-22,19,-16,-78,74,3960,9,-4,880,1756,1858,2080,2205,2018,1797,1870,1990
959082,-45796,-15512,2372,35140,0,0,-19,19,-17,-92,57,3941,4,-4,880,1756,1858,2080,2205,2018,1797,1870,1990
960083,-45812,-15520,2437,35205,0,0,-19,18,-17,-88,60,3928,-6,6,880,1756,1858,2080,2205,2018,1797,1870,1990
961084,-45800,-15504,2502,35270,0,0,-21,16,-18,-74,64,3939,-7,8,881,1756,1859,2081,2205,2018,1798,1871,1990
962085,-45804,-15508,2567,35335,0,0,-25,16,-19,-48,73,3960,-3,7,881,1756,1859,2081,2205,2018,1798,1871,1990
963086,-45800,-15496,2632,35400,0,0,-26,14,-17,-76,50,3962,6,-4,881,1756,1859,2081,2205,2018,1798,1871,1990
964087,-45796,-15508,2697,35465,0,0,-22,18,-15,-97,52,3916,11,-6,881,1756,1859,2081,2205,2018,1798,1871,1990
965088,-45804,-15492,2762,35530,0,0,-19,19,-18,-91,73,3935,11,-6,881,1756,1859,2081,2205,2018,1798,1871,1990
966089,-45804,-15500,2827,35595,0,0,-21,17,-18,-74,67,3981,9,4,881,1756,1859,2081,2205,2018,1798,1871,1990
967090,-45812,-15512,2892,35660,0,0,-23,15,-18,-68,51,3949,-1,7,881,1756,1858,2081,2205,2018,1798,1871,1990
968091,-45808,-15504,2957,35725,0,0,-21,15,-17,-76,36,3943,-6,8,881,1756,1858,2081,2205,2018,1798,1871,1990
969092,-45812,-15508,3022,35790,0,0,-24,20,-14,-80,44,3945,-8,3,881,1756,1858,2081,2205,2018,1798,1871,1990
970093,-45804,-15508,3087,35855,0,0,-22,20,-17,-75,32,3980,-6,1,881,1756,1858,2081,2205,2018,1798,1871,1990
971095,-45804,-15512,3152,35920,0,0,-23,19,-17,-102,64,3961,-8,-4,881,1756,1858,2081,2205,2018,1798,1871,1990
972095,-45800,-15504,3217,35985,0,0,-23,17,-14,-95,39,3931,-8,-6,880,1756,1859,2083,2205,2017,1795,1870,1992
973096,-45812,-15516,3282,36050,0,0,-23,15,-16,-81,40,3923,-5,-6,881,1756,1859,2083,2205,2017,1795,1870,1992
974097,-45804,-15504,3347,36115,0,0,-22,14,-16,-81,35,3924,-8,-7,881,1756,1859,2083,2205,2017,1795,1870,1992
975098,-45804,-15512,3412,36180,0,0,-21,16,-16,-93,38,3918,-5,-2,881,1756,1859,2083,2205,2017,1795,1870,1992
976099,-45808,-15504,3477,36245,0,0,-22,21,-16,-77,46,3902,5,-1,881,1756,1859,2083,2205,2017,1795,1870,1992
977100,-45796,-15508,3542,36310,0,0,-20,20,-13,-66,53,3940,2,0,881,1756,1859,2083,2205,2017,1795,1870,1992
978101,-45816,-15508,3607,36375,0,0,-18,19,-14,-72,76,3949,1,7,881,1757,1859,2081,2205,2018,1798,1871,1989
979102,-45800,-15500,3672,36440,0,0,-20,17,-16,-93,80,3913,-1,8,881,1757,1859,2081,2205,2018,1798,1871,1989
980103,-45804,-15508,3737,36505,0,0,-22,20,-16,-88,62,3912,-4,7,881,1757,1859,2081,2205,2018,1798,1871,1989
981104,-45788,-15504,3802,36570,0,0,-24,20,-18,-76,54,3923,1,-2,881,1757,1859,2081,2205,2018,1798,1871,1989
982105,-45808,-15500,3867,36635,0,0,-25,19,-18,-90,51,3931,3,-6,881,1757,1859,2081,2205,2018,1798,1871,1989
983106,-45804,-15504,3932,36700,0,0,-22,17,-20,-98,70,3961,1,-6,881,1758,1860,2082,2206,2017,1797,1872,1990
984107,-45804,-15516,3997,36765,0,0,-22,17,-18,-97,63,3916,3,2,881,1758,1860,2082,2206,2017,1797,1872,1990
985108,-45808,-15508,4062,36830,0,0,-23,17,-16,-71,59,3902,5,3,881,1758,1860,2082,2206,2017,1797,1872,1990
986109,-45804,-15504,4127,36895,0,0,-22,19,-15,-80,21,3949,4,6,881,1758,1860,2082,2206,2017,1797,1872,1990
987110,-45808,-15508,4192,36960,0,0,-21,19,-15,-82,41,3958,8,4,881,1758,1860,2082,2206,2017,1797,1872,1990
988111,-45800,-15508,4257,37025,0,0,-24,18,-18,-97,60,3974,11,-2,881,1758,1860,2082,2206,2017,1797,1872,1990
989112,-45812,-15504,4322,37090,0,0,-22,18,-17,-70,43,3938,8,-1,880,1755,1857,2080,2205,2017,1796,1870,1989
990113,-45812,-15500,4387,37155,0,0,-18,18,-15,-78,51,3947,-4,-3,881,1755,1857,2080,2205,2017,1796,1870,1989
991114,-45808,-15504,4452,37220,0,0,-18,18,-16,-63,56,3944,-8,-4,881,1755,1857,2080,2205,2017,1796,1870,1989
992115,-45796,-15496,4517,37285,0,0,-20,19,-17,-60,51,3956,-8,-6,881,1755,1857,2080,2205,2017,1796,1870,1989
993116,-45800,-15508,4582,37350,0,0,-20,17,-17,-86,57,3933,-3,-5,881,1755,1857,2080,2205,2017,1796,1870,1989
994117,-45804,-15508,4647,37415,0,0,-22,19,-16,-78,49,3938,10,-2,881,1757,1859,2080,2208,2017,1797,1871,1989
995118,-45808,-15508,4712,37480,0,0,-23,18,-18,-81,55,3956,11,3,881,1757,1859,2080,2208,2017,1797,1871,1989
996119,-45808,-15508,4777,37545,0,0,-22,16,-16,-86,64,3950,9,7,881,1757,1859,2080,2208,2017,1797,1871,1989
997120,-45804,-15496,4842,37610,0,0,-21,18,-15,-62,60,3944,3,2,881,1757,1859,2080,2208,2017,1797,1871,1989
998121,-45808,-15512,4907,37675,0,0,-21,20,-17,-74,49,3911,1,-2,881,1757,1859,2080,2208,2017,1797,1871,1989
999122,-45800,-15508,4972,37740,0,0,-20,18,-17,-99,39,3908,-7,-7,881,1757,1859,2080,2208,2017,1797,1871,1989
1000123,-45804,-15504,5037,37805,0,0,-19,18,-15,-106,29,3925,-8,-5,881,1756,1858,2080,2206,2017,1798,1871,1990
1001124,-45788,-15512,5102,37870,0,0,-16,19,-13,-80,59,3946,-8,0,881,1756,1858,2080,2206,2017,1798,1871,1990
1002125,-45808,-15500,5167,37935,0,0,-16,17,-14,-65,76,3924,-6,7,881,1756,1858,2080,2206,2017,1798,1871,1990
1003126,-45804,-15508,5232,38000,0,0,-19,17,-13,-69,65,3923,0,7,881,1756,1858,2080,2206,2017,1798,1871,1990
1004127,-45804,-15500,5297,38065,0,0,-22,18,-14,-96,62,3953,-2,8,881,1756,1858,2080,2206,2017,1798,1871,1990
1005128,-45812,-15508,5362,38130,0,0,-22,19,-13,-76,66,3961,7,-2,882,1756,1859,2081,2205,2018,1797,1871,1990
1006129,-45808,-15500,5427,38195,0,0,-21,18,-14,-68,73,3963,8,-5,880,1756,1859,2081,2205,2018,1797,1871,1990
1007130,-45800,-15516,5492,38260,0,0,-17,16,-15,-72,65,3925,7,-2,881,1756,1859,2081,2205,2018,1797,1871,1990
1008131,-45800,-15512,5557,38325,0,0,-15,15,-16,-80,63,3916,4,-7,881,1756,1859,2081,2205,2018,1797,1871,1990
1009132,-45804,-15508,5622,38390,0,0,-17,17,-15,-88,66,3941,6,-4,881,1756,1859,2081,2205,2018,1797,1871,1990
1010133,-45804,-15500,5687,38455,0,0,-19,19,-15,-108,67,3966,4,3,881,1756,1859,2081,2205,2018,1797,1871,1990
1011134,-45808,-15504,5752,38520,0,0,-20,18,-14,-113,55,3983,9,8,881,1756,1858,2081,2203,2015,1795,1870,1990
1012135,-45820,-15500,5817,38585,0,0,-20,20,-17,-93,48,3960,11,6,881,1756,1858,2081,2203,2015,1795,1870,1990
1013136,-45808,-15508,5882,38650,0,0,-20,19,-18,-73,92,3918,10,4,881,1756,1858,2081,2203,2015,1795,1870,1990
1014137,-45800,-15504,5947,38715,0,0,-19,16,-15,-91,66,3911,11,-2,881,1756,1858,2081,2203,2015,1795,1870,1990
1015138,-45800,-15508,6012,38780,0,0,-18,16,-14,-83,64,3927,8,0,881,1756,1858,2081,2203,2015,1795,1870,1990
1016139,-45808,-15508,6077,38845,0,0,-19,18,-13,-86,41,3908,4,2,881,1756,1859,2080,2205,2018,1797,1871,1989
1017140,-45808,-15508,6142,38910,0,0,-22,20,-15,-86,71,3920,0,-3,881,1756,1859,2080,2205,2018,1797,1871,1989
1018141,-45804,-15504,6207,38975,0,0,-22,17,-15,-91,71,3964,-5,-4,881,1756,1859,2080,2205,2018,1797,1871,1989
1019142,-45816,-15500,6272,39040,0,0,-23,17,-15,-86,70,3929,-3,-5,881,1756,1859,2080,2205,2018,1797,1871,1989
1020143,-45808,-15508,6337,39105,0,0,-20,17,-16,-85,81,3928,-8,-6,881,1756,1859,2080,2205,2018,1797,1871,1989
1021147,-45804,-15524,6402,39170,0,0,-21,19,-17,-79,53,3940,-7,-6,881,1756,1859,2080,2205,2018,1797,1871,1989
1022145,-45816,-15504,6467,39235,0,0,-20,19,-14,-84,67,3940,-7,-4,881,1755,1858,2082,2207,2020,1798,1872,1990
1023146,-45808,-15516,6532,39300,0,0,-21,19,-14,-78,81,3942,-5,4,880,1755,1858,2082,2207,2020,1798,1872,1990
1024147,-45804,-15504,6597,39365,0,0,-22,21,-13,-86,70,3958,0,5,881,1755,1858,2082,2207,2020,1798,1872,1990
1025148,-45808,-15500,6662,39430,0,0,-22,22,-15,-84,52,3964,-7,7,881,1755,1858,2082,2207,2020,1798,1872,1990
1026149,-45808,-15508,6727,39495,0,0,-21,20,-18,-62,53,3924,-3,2,881,1755,1858,2082,2207,2020,1798,1872,1990
1027150,-45808,-15504,6792,39560,0,0,-21,18,-18,-69,40,3946,1,-3,881,1755,1857,2080,2204,2017,1798,1870,1989
1028151,-45800,-15504,6857,39625,0,0,-22,17,-16,-97,46,3976,-2,-7,881,1755,1857,2080,2204,2017,1798,1870,1989
1029152,-45796,-15504,6922,39690,0,0,-24,19,-17,-91,53,3965,-1,-4,881,1755,1857,2080,2204,2017,1798,1870,1989
1030153,-45824,-15512,6987,39755,0,0,-24,19,-15,-86,43,3943,4,0,881,1755,1857,2080,2204,2017,1798,1870,1989
1031154,-45796,-15496,7052,39820,0,0,-24,18,-17,-78,65,3958,1,4,882,1755,1857,2080,2204,2017,1798,1870,1989
1032155,-45804,-15508,7117,39885,0,0,-24,18,-17,-97,68,3943,6,7,881,1756,1858,2080,2204,2017,1797,1870,1988
1033156,-45812,-15516,7182,39950,0,0,-21,21,-17,-95,38,3927,11,3,881,1756,1858,2080,2204,2017,1797,1870,1988
1034157,-45804,-15508,7247,40015,0,0,-20,21,-18,-91,77,3930,11,-3,881,1756,1858,2080,2204,2017,1797,1870,1988
1035158,-45812,-15512,7312,40080,0,0,-20,19,-18,-90,81,3903,2,-6,881,1756,1858,2080,2204,2017,1797,1870,1988
1036159,-45812,-15500,7377,40145,0,0,-22,20,-16,-80,84,3877,-7,-5,881,1756,1858,2080,2204,2017,1797,1870,1988
1037160,-45800,-15504,7442,40210,0,0,-21,18,-17,-90,60,3961,-7,-3,881,1756,1858,2080,2204,2017,1797,1870,1988
1038161,-45808,-15508,7507,40275,0,0,-22,17,-17,-97,61,3961,-6,8,881,1756,1858,2080,2205,2016,1797,1870,1989
1039162,-45816,-15504,7572,40340,0,0,-21,17,-15,-91,71,3917,1,8,881,1756,1858,2080,2205,2016,1797,1870,1989
1040163,-45792,-15512,7637,40405,0,0,-21,17,-15,-99,66,3938,6,8,880,1756,1858,2080,2205,2016,1797,1870,1989
1041164,-45816,-15516,7702,40470,0,0,-22,20,-16,-90,66,3933,9,8,881,1756,1858,2080,2205,2016,1797,1870,1989
1042165,-45816,-15508,7767,40535,0,0,-20,18,-17,-75,86,3938,1,7,881,1756,1858,2080,2205,2016,1797,1870,1989
1043166,-45812,-15512,7832,40600,0,0,-22,17,-18,-61,75,3934,-7,6,881,1756,1858,2080,2206,2017,1798,1871,1990
1044167,-45804,-15508,7897,40665,0,0,-22,15,-16,-82,62,3933,-5,-4,881,1756,1858,2080,2206,2017,1798,1871,1990
1045168,-45800,-15512,7962,40730,0,0,-21,18,-15,-69,46,3908,7,-6,881,1756,1858,2080,2206,2017,1798,1871,1990
1046169,-45800,-15504,8027,40795,0,0,-22,21,-15,-88,48,3927,11,-7,881,1756,1858,2080,2206,2017,1798,1871,1990
1047170,-45808,-15508,8092,40860,0,0,-22,22,-15,-103,57,3948,-2,-2,881,1756,1858,2080,2206,2017,1798,1871,1990
1048171,-45816,-15500,8157,40925,0,0,-19,19,-16,-91,51,3922,-5,-1,881,1756,1858,2080,2206,2017,1798,1871,1990
1049172,-45800,-15500,8222,40990,0,0,-17,17,-17,-73,62,3918,5,2,881,1756,1859,2080,2205,2017,1795,1867,1987
1050173,-45804,-15508,8287,41055,0,0,-18,16,-16,-80,73,3942,8,8,881,1756,1859,2080,2205,2017,1795,1867,1987
1051174,-45812,-15504,8352,41120,0,0,-22,15,-14,-94,70,3969,-7,7,881,1756,1859,2080,2205,2017,1795,1867,1987
1052175,-45804,-15516,8417,41185,0,0,-21,17,-16,-98,54,3964,-7,6,881,1756,1859,2080,2205,2017,1795,1867,1987
1053176,-45816,-15512,8482,41250,0,0,-19,18,-17,-74,74,3952,10,-1,881,1756,1859,2080,2205,2017,1795,1867,1987
1054177,-45812,-15504,8547,41315,0,0,-20,18,-16,-76,82,3904,-1,-1,881,1756,1858,2080,2205,2018,1797,1870,1988
1055178,-45812,-15504,8612,41380,0,0,-19,17,-16,-78,74,3954,-8,-2,881,1756,1858,2080,2205,2018,1797,1870,1988
1056179,-45804,-15504,8677,41445,0,0,-19,17,-17,-83,62,3972,0,-7,881,1756,1858,2080,2205,2018,1797,1870,1988
1057180,-45812,-15504,8742,41510,0,0,-18,19,-14,-56,44,3960,10,-5,880,1756,1858,2080,2205,2018,1797,1870,1988
1058181,-45804,-15496,8807,41575,0,0,-19,21,-15,-74,64,3938,2,-3,881,1756,1858,2080,2205,2018,1797,1870,1988
1059182,-45804,-15500,8872,41640,0,0,-19,19,-15,-98,57,3922,-3,-7,881,1756,1858,2080,2205,2018,1797,1870,1988
1060183,-45800,-15512,8937,41705,0,0,-19,19,-17,-87,71,3934,-6,-6,881,1755,1855,2079,2207,2020,1800,1873,1992
1061184,-45804,-15508,9002,41770,0,0,-24,18,-15,-77,74,3949,-5,-5,881,1755,1855,2079,2207,2020,1800,1873,1992
1062185,-45808,-15500,9067,41835,0,0,-21,18,-16,-64,78,3948,2,3,881,1755,1855,2079,2207,2020,1800,1873,1992
1063186,-45812,-15496,9132,41900,0,0,-19,21,-18,-78,65,3935,9,-6,881,1755,1855,2079,2207,2020,1800,1873,1992
1064187,-45804,-15500,9197,41965,0,0,-18,20,-17,-68,46,3956,11,-5,881,1755,1855,2079,2207,2020,1800,1873,1992
1065188,-45812,-15504,9262,42030,0,0,-18,18,-16,-63,63,3968,4,6,881,1756,1858,2080,2205,2018,1797,1871,1990
1066189,-45812,-15500,9327,42095,0,0,-19,17,-15,-78,64,3955,-8,7,881,1756,1858,2080,2205,2018,1797,1871,1990
1067190,-45804,-15520,9392,42160,0,0,-23,17,-16,-73,54,3963,-8,6,881,1756,1858,2080,2205,2018,1797,1871,1990
1068191,-45808,-15512,9457,42225,0,0,-25,17,-15,-78,62,3949,3,-5,881,1756,1858,2080,2205,2018,1797,1871,1990
1069192,-45796,-15500,9522,42290,0,0,-24,18,-18,-118,51,3916,11,-6,881,1756,1858,2080,2205,2018,1797,1871,1990
1070193,-45804,-15508,9587,42355,0,0,-23,20,-15,-106,41,3926,11,-7,881,1756,1858,2080,2205,2018,1797,1871,1990
1071194,-45808,-15504,9652,42420,0,0,-22,21,-17,-75,60,3936,6,3,881,1756,1859,2080,2208,2018,1798,1871,1990
1072195,-45812,-15504,9717,42485,0,0,-20,22,-17,-78,57,3997,-7,8,881,1756,1859,2080,2208,2018,1798,1871,1990
1073196,-45808,-15512,9782,42550,0,0,-21,19,-17,-94,59,3976,-8,8,881,1756,1859,2080,2208,2018,1798,1871,1990
1074197,-45812,-15516,9847,42615,0,0,-21,18,-17,-107,70,3946,-5,7,880,1756,1859,2080,2208,2018,1798,1871,1990
1075198,-45812,-15516,9912,42680,0,0,-22,17,-21,-84,48,3935,1,8,881,1756,1859,2080,2208,2018,1798,1871,1990
1076199,-45792,-15496,9977,42745,0,0,-24,18,-19,-98,47,3933,-3,8,881,1756,1858,2081,2206,2018,1798,1871,1990
1077200,-45804,-15512,10042,42810,0,0,-26,18,-16,-96,49,3943,-4,-1,881,1756,1858,2081,2206,2018,1798,1871,1990
1078201,-45804,-15508,10107,42875,0,0,-24,19,-17,-83,73,3952,-5,-3,881,1756,1858,2081,2206,2018,1798,1871,1990
1079202,-45804,-15504,10172,42940,0,0,-24,18,-18,-100,78,3941,-6,-1,881,1756,1858,2081,2206,2018,1798,1871,1990
1080203,-45804,-15504,10237,43005,0,0,-25,18,-16,-99,58,3947,0,-6,881,1756,1858,2081,2206,2018,1798,1871,1990
1081204,-45804,-15508,10302,43070,0,0,-25,17,-16,-107,40,3931,8,-7,881,1756,1858,2081,2206,2018,1798,1871,1990
1082205,-45804,-15504,10367,43135,0,0,-23,19,-19,-77,65,3949,9,-7,881,1756,1858,2081,2206,2017,1798,1871,1990
1083206,-45804,-15508,10432,43200,0,0,-24,18,-17,-83,54,3921,11,-3,881,1756,1858,2081,2206,2017,1798,1871,1990
1084207,-45800,-15512,10497,43265,0,0,-25,17,-15,-81,64,3918,9,-4,881,1756,1858,2081,2206,2017,1798,1871,1990
1085208,-45808,-15500,10562,43330,0,0,-24,20,-17,-114,71,3893,10,-4,881,1756,1858,2081,2206,2017,1798,1871,1990
1086209,-45808,-15504,10627,43395,0,0,-23,20,-15,-115,62,3913,5,5,881,1756,1858,2081,2206,2017,1798,1871,1990
1087210,-45804,-15500,10692,43460,0,0,-23,19,-17,-71,59,3950,-5,7,881,1756,1859,2080,2206,2018,1798,1871,1989
